date,time,group,subject,session,build,trialnum,blockcode,trialcode,correct,latency,stimulusnumber1,stimulusitem1,stimulusonset1,stimulusnumber2,stimulusitem2,stimulusonset2,stimulusnumber3,stimulusitem3,stimulusonset3,stimulusnumber4,stimulusitem4,stimulusonset4,stimulusnumber5,stimulusitem5,stimulusonset5,stimulusnumber6,stimulusitem6,stimulusonset6,stimulusnumber7,stimulusitem7,stimulusonset7,stimulusnumber8,stimulusitem8,stimulusonset8,stimulusnumber9,stimulusitem9,stimulusonset9
23.06.22,12:37:34,762566308,893377996,1,06.06.00,1,scale,instructions,1,1624,1,"This is the second of the six tasks. You will be presented with a number of trials. On each trial, you will be asked to make a rating between two categories by clicking a number between 1 and 7.  1 indicates a strong preference for the category presented on the left, whereas 7 represents a strong preference for the category presented on the right. 4 indcates no preference.  When you are ready to begin, please press the spacebar.",1,0,0,0,0,0,0,0,0,0,0,0,0,0,0,0,0,0,0,0,0,0,0,0,0
23.06.22,12:37:34,762566308,893377996,1,06.06.00,2,scale,like,1,1866,1,pleasant1.jpg,14,1,pleasant2.jpg,14,1,pleasant3.jpg,14,1,pleasant4.jpg,14,1,unpleasant1.jpg,14,1,unpleasant2.jpg,14,1,unpleasant3.jpg,14,1,unpleasant4.jpg,14,1,Please use the mouse to click on the desired response option!,14
23.06.22,12:26:48,569179372,994692692,1,06.06.00,1,scale,instructions,1,14241,1,"This is the second of the six tasks. You will be presented with a number of trials. On each trial, you will be asked to make a rating between two categories by clicking a number between 1 and 7.  1 indicates a strong preference for the category presented on the left, whereas 7 represents a strong preference for the category presented on the right. 4 indcates no preference.  When you are ready to begin, please press the spacebar.",13,0,0,0,0,0,0,0,0,0,0,0,0,0,0,0,0,0,0,0,0,0,0,0,0
23.06.22,12:26:48,569179372,994692692,1,06.06.00,2,scale,like,0,14986,1,pleasant1.jpg,4,1,pleasant2.jpg,4,1,pleasant3.jpg,4,1,pleasant4.jpg,4,1,unpleasant1.jpg,4,1,unpleasant2.jpg,4,1,unpleasant3.jpg,4,1,unpleasant4.jpg,4,1,Please use the mouse to click on the desired response option!,4
23.06.22,12:26:48,569179372,994692692,1,06.06.00,3,scale,positive,0,5821,1,pleasant1.jpg,12,1,pleasant2.jpg,12,1,pleasant3.jpg,12,1,pleasant4.jpg,12,1,unpleasant1.jpg,12,1,unpleasant2.jpg,12,1,unpleasant3.jpg,12,1,unpleasant4.jpg,12,1,Please use the mouse to click on the desired response option!,12
23.06.22,12:26:48,569179372,994692692,1,06.06.00,4,scale,prefer,0,6889,1,pleasant1.jpg,4,1,pleasant2.jpg,4,1,pleasant3.jpg,4,1,pleasant4.jpg,4,1,unpleasant1.jpg,4,1,unpleasant2.jpg,4,1,unpleasant3.jpg,4,1,unpleasant4.jpg,4,1,Please use the mouse to click on the desired response option!,4
23.06.22,12:31:22,318655233,246532124,1,06.06.00,1,scale,instructions,1,4379,1,"This is the second of the six tasks. You will be presented with a number of trials. On each trial, you will be asked to make a rating between two categories by clicking a number between 1 and 7.  1 indicates a strong preference for the category presented on the left, whereas 7 represents a strong preference for the category presented on the right. 4 indcates no preference.  When you are ready to begin, please press the spacebar.",0,0,0,0,0,0,0,0,0,0,0,0,0,0,0,0,0,0,0,0,0,0,0,0,0
23.06.22,12:31:22,318655233,246532124,1,06.06.00,2,scale,like,0,8269,1,pleasant1.jpg,0,1,pleasant2.jpg,0,1,pleasant3.jpg,0,1,pleasant4.jpg,0,1,unpleasant1.jpg,0,1,unpleasant2.jpg,0,1,unpleasant3.jpg,0,1,unpleasant4.jpg,0,1,Please use the mouse to click on the desired response option!,0
23.06.22,12:39:06,793661124,469672453,1,06.06.00,1,scale,instructions,1,14933,1,"This is the second of the six tasks. You will be presented with a number of trials. On each trial, you will be asked to make a rating between two categories by clicking a number between 1 and 7.  1 indicates a strong preference for the category presented on the left, whereas 7 represents a strong preference for the category presented on the right. 4 indcates no preference.  When you are ready to begin, please press the spacebar.",-16,0,0,0,0,0,0,0,0,0,0,0,0,0,0,0,0,0,0,0,0,0,0,0,0
23.06.22,12:39:06,793661124,469672453,1,06.06.00,2,scale,like,0,12217,1,pleasant1.jpg,-16,1,pleasant2.jpg,-16,1,pleasant3.jpg,-16,1,pleasant4.jpg,-16,1,unpleasant1.jpg,-16,1,unpleasant2.jpg,-16,1,unpleasant3.jpg,-16,1,unpleasant4.jpg,-16,1,Please use the mouse to click on the desired response option!,-16
23.06.22,12:39:06,793661124,469672453,1,06.06.00,3,scale,positive,0,4470,1,pleasant1.jpg,-3,1,pleasant2.jpg,-3,1,pleasant3.jpg,-3,1,pleasant4.jpg,-3,1,unpleasant1.jpg,-3,1,unpleasant2.jpg,-3,1,unpleasant3.jpg,-3,1,unpleasant4.jpg,-3,1,Please use the mouse to click on the desired response option!,-3
23.06.22,12:39:06,793661124,469672453,1,06.06.00,4,scale,prefer,0,1417,1,pleasant1.jpg,-7,1,pleasant2.jpg,-7,1,pleasant3.jpg,-7,1,pleasant4.jpg,-7,1,unpleasant1.jpg,-7,1,unpleasant2.jpg,-7,1,unpleasant3.jpg,-7,1,unpleasant4.jpg,-7,1,Please use the mouse to click on the desired response option!,-7
23.06.22,12:40:15,432010222,902223169,1,06.06.00,1,scale,instructions,1,5723,1,"This is the second of the six tasks. You will be presented with a number of trials. On each trial, you will be asked to make a rating between two categories by clicking a number between 1 and 7.  1 indicates a strong preference for the category presented on the left, whereas 7 represents a strong preference for the category presented on the right. 4 indcates no preference.  When you are ready to begin, please press the spacebar.",-16,0,0,0,0,0,0,0,0,0,0,0,0,0,0,0,0,0,0,0,0,0,0,0,0
23.06.22,12:40:15,432010222,902223169,1,06.06.00,2,scale,like,0,17582,1,pleasant1.jpg,-16,1,pleasant2.jpg,-16,1,pleasant3.jpg,-16,1,pleasant4.jpg,-16,1,unpleasant1.jpg,-16,1,unpleasant2.jpg,-16,1,unpleasant3.jpg,-16,1,unpleasant4.jpg,-16,1,Please use the mouse to click on the desired response option!,-16
23.06.22,12:40:15,432010222,902223169,1,06.06.00,3,scale,positive,0,5567,1,pleasant1.jpg,-9,1,pleasant2.jpg,-9,1,pleasant3.jpg,-9,1,pleasant4.jpg,-9,1,unpleasant1.jpg,-9,1,unpleasant2.jpg,-9,1,unpleasant3.jpg,-9,1,unpleasant4.jpg,-9,1,Please use the mouse to click on the desired response option!,-9
23.06.22,12:40:15,432010222,902223169,1,06.06.00,4,scale,prefer,0,4366,1,pleasant1.jpg,-9,1,pleasant2.jpg,-9,1,pleasant3.jpg,-9,1,pleasant4.jpg,-9,1,unpleasant1.jpg,-9,1,unpleasant2.jpg,-9,1,unpleasant3.jpg,-9,1,unpleasant4.jpg,-9,1,Please use the mouse to click on the desired response option!,-9
23.06.22,12:40:40,44150083,4345805,1,06.06.00,1,scale,instructions,1,9776,1,"This is the second of the six tasks. You will be presented with a number of trials. On each trial, you will be asked to make a rating between two categories by clicking a number between 1 and 7.  1 indicates a strong preference for the category presented on the left, whereas 7 represents a strong preference for the category presented on the right. 4 indcates no preference.  When you are ready to begin, please press the spacebar.",-15,0,0,0,0,0,0,0,0,0,0,0,0,0,0,0,0,0,0,0,0,0,0,0,0
23.06.22,12:40:40,44150083,4345805,1,06.06.00,2,scale,like,0,11335,1,pleasant1.jpg,28,1,pleasant2.jpg,28,1,pleasant3.jpg,28,1,pleasant4.jpg,28,1,unpleasant1.jpg,28,1,unpleasant2.jpg,28,1,unpleasant3.jpg,28,1,unpleasant4.jpg,28,1,Please use the mouse to click on the desired response option!,28
23.06.22,12:40:40,44150083,4345805,1,06.06.00,3,scale,positive,0,4042,1,pleasant1.jpg,2,1,pleasant2.jpg,2,1,pleasant3.jpg,2,1,pleasant4.jpg,2,1,unpleasant1.jpg,2,1,unpleasant2.jpg,2,1,unpleasant3.jpg,2,1,unpleasant4.jpg,2,1,Please use the mouse to click on the desired response option!,2
23.06.22,12:40:40,44150083,4345805,1,06.06.00,4,scale,prefer,0,4588,1,pleasant1.jpg,1,1,pleasant2.jpg,1,1,pleasant3.jpg,1,1,pleasant4.jpg,1,1,unpleasant1.jpg,1,1,unpleasant2.jpg,1,1,unpleasant3.jpg,1,1,unpleasant4.jpg,1,1,Please use the mouse to click on the desired response option!,1
23.06.22,13:40:41,930613463,637089700,1,06.06.00,1,scale,instructions,1,28991,1,"This is the second of the six tasks. You will be presented with a number of trials. On each trial, you will be asked to make a rating between two categories by clicking a number between 1 and 7.  1 indicates a strong preference for the category presented on the left, whereas 7 represents a strong preference for the category presented on the right. 4 indcates no preference.  When you are ready to begin, please press the spacebar.",-16,0,0,0,0,0,0,0,0,0,0,0,0,0,0,0,0,0,0,0,0,0,0,0,0
23.06.22,13:40:41,930613463,637089700,1,06.06.00,2,scale,like,0,12395,1,pleasant1.jpg,-16,1,pleasant2.jpg,-16,1,pleasant3.jpg,-16,1,pleasant4.jpg,-16,1,unpleasant1.jpg,-16,1,unpleasant2.jpg,-16,1,unpleasant3.jpg,-16,1,unpleasant4.jpg,-16,1,Please use the mouse to click on the desired response option!,-16
23.06.22,13:40:41,930613463,637089700,1,06.06.00,3,scale,positive,0,8267,1,pleasant1.jpg,-9,1,pleasant2.jpg,-9,1,pleasant3.jpg,-9,1,pleasant4.jpg,-9,1,unpleasant1.jpg,-9,1,unpleasant2.jpg,-9,1,unpleasant3.jpg,-9,1,unpleasant4.jpg,-9,1,Please use the mouse to click on the desired response option!,-9
23.06.22,13:40:41,930613463,637089700,1,06.06.00,4,scale,prefer,0,5938,1,pleasant1.jpg,-10,1,pleasant2.jpg,-10,1,pleasant3.jpg,-10,1,pleasant4.jpg,-10,1,unpleasant1.jpg,-10,1,unpleasant2.jpg,-10,1,unpleasant3.jpg,-10,1,unpleasant4.jpg,-10,1,Please use the mouse to click on the desired response option!,-10
23.06.22,13:41:45,433892565,786441188,1,06.06.00,1,scale,instructions,1,33109,1,"This is the second of the six tasks. You will be presented with a number of trials. On each trial, you will be asked to make a rating between two categories by clicking a number between 1 and 7.  1 indicates a strong preference for the category presented on the left, whereas 7 represents a strong preference for the category presented on the right. 4 indcates no preference.  When you are ready to begin, please press the spacebar.",-15,0,0,0,0,0,0,0,0,0,0,0,0,0,0,0,0,0,0,0,0,0,0,0,0
23.06.22,13:41:45,433892565,786441188,1,06.06.00,2,scale,like,0,14341,1,pleasant1.jpg,-15,1,pleasant2.jpg,-15,1,pleasant3.jpg,-15,1,pleasant4.jpg,-15,1,unpleasant1.jpg,-15,1,unpleasant2.jpg,-15,1,unpleasant3.jpg,-15,1,unpleasant4.jpg,-15,1,Please use the mouse to click on the desired response option!,-15
23.06.22,13:41:45,433892565,786441188,1,06.06.00,3,scale,positive,0,4175,1,pleasant1.jpg,-4,1,pleasant2.jpg,-4,1,pleasant3.jpg,-4,1,pleasant4.jpg,-4,1,unpleasant1.jpg,-4,1,unpleasant2.jpg,-4,1,unpleasant3.jpg,-4,1,unpleasant4.jpg,-4,1,Please use the mouse to click on the desired response option!,-4
23.06.22,13:41:45,433892565,786441188,1,06.06.00,4,scale,prefer,0,7731,1,pleasant1.jpg,-5,1,pleasant2.jpg,-5,1,pleasant3.jpg,-5,1,pleasant4.jpg,-5,1,unpleasant1.jpg,-5,1,unpleasant2.jpg,-5,1,unpleasant3.jpg,-5,1,unpleasant4.jpg,-5,1,Please use the mouse to click on the desired response option!,-5
23.06.22,12:45:39,750875114,510787584,1,06.06.00,1,scale,instructions,1,14717,1,"This is the second of the six tasks. You will be presented with a number of trials. On each trial, you will be asked to make a rating between two categories by clicking a number between 1 and 7.  1 indicates a strong preference for the category presented on the left, whereas 7 represents a strong preference for the category presented on the right. 4 indcates no preference.  When you are ready to begin, please press the spacebar.",-8,0,0,0,0,0,0,0,0,0,0,0,0,0,0,0,0,0,0,0,0,0,0,0,0
23.06.22,12:45:39,750875114,510787584,1,06.06.00,2,scale,like,0,9710,1,pleasant1.jpg,-14,1,pleasant2.jpg,-14,1,pleasant3.jpg,-14,1,pleasant4.jpg,-14,1,unpleasant1.jpg,-14,1,unpleasant2.jpg,-14,1,unpleasant3.jpg,-14,1,unpleasant4.jpg,-14,1,Please use the mouse to click on the desired response option!,-14
23.06.22,12:45:39,750875114,510787584,1,06.06.00,3,scale,positive,0,2495,1,pleasant1.jpg,-3,1,pleasant2.jpg,-3,1,pleasant3.jpg,-3,1,pleasant4.jpg,-3,1,unpleasant1.jpg,-3,1,unpleasant2.jpg,-3,1,unpleasant3.jpg,-3,1,unpleasant4.jpg,-3,1,Please use the mouse to click on the desired response option!,-3
23.06.22,12:45:39,750875114,510787584,1,06.06.00,4,scale,prefer,0,2628,1,pleasant1.jpg,-5,1,pleasant2.jpg,-5,1,pleasant3.jpg,-5,1,pleasant4.jpg,-5,1,unpleasant1.jpg,-5,1,unpleasant2.jpg,-5,1,unpleasant3.jpg,-5,1,unpleasant4.jpg,-5,1,Please use the mouse to click on the desired response option!,-5
23.06.22,12:44:00,305030099,684265529,1,06.06.00,1,scale,instructions,1,60905,1,"This is the second of the six tasks. You will be presented with a number of trials. On each trial, you will be asked to make a rating between two categories by clicking a number between 1 and 7.  1 indicates a strong preference for the category presented on the left, whereas 7 represents a strong preference for the category presented on the right. 4 indcates no preference.  When you are ready to begin, please press the spacebar.",-15,0,0,0,0,0,0,0,0,0,0,0,0,0,0,0,0,0,0,0,0,0,0,0,0
23.06.22,12:44:00,305030099,684265529,1,06.06.00,2,scale,like,0,11888,1,pleasant1.jpg,14,1,pleasant2.jpg,14,1,pleasant3.jpg,14,1,pleasant4.jpg,14,1,unpleasant1.jpg,14,1,unpleasant2.jpg,14,1,unpleasant3.jpg,14,1,unpleasant4.jpg,14,1,Please use the mouse to click on the desired response option!,14
23.06.22,12:44:00,305030099,684265529,1,06.06.00,3,scale,positive,0,5220,1,pleasant1.jpg,-5,1,pleasant2.jpg,-5,1,pleasant3.jpg,-5,1,pleasant4.jpg,-5,1,unpleasant1.jpg,-5,1,unpleasant2.jpg,-5,1,unpleasant3.jpg,-5,1,unpleasant4.jpg,-5,1,Please use the mouse to click on the desired response option!,-5
23.06.22,12:44:00,305030099,684265529,1,06.06.00,4,scale,prefer,0,6514,1,pleasant1.jpg,-5,1,pleasant2.jpg,-5,1,pleasant3.jpg,-5,1,pleasant4.jpg,-5,1,unpleasant1.jpg,-5,1,unpleasant2.jpg,-5,1,unpleasant3.jpg,-5,1,unpleasant4.jpg,-5,1,Please use the mouse to click on the desired response option!,-5
23.06.22,07:45:16,486315965,199802590,1,06.06.00,1,scale,instructions,1,16760,1,"This is the second of the six tasks. You will be presented with a number of trials. On each trial, you will be asked to make a rating between two categories by clicking a number between 1 and 7.  1 indicates a strong preference for the category presented on the left, whereas 7 represents a strong preference for the category presented on the right. 4 indcates no preference.  When you are ready to begin, please press the spacebar.",-16,0,0,0,0,0,0,0,0,0,0,0,0,0,0,0,0,0,0,0,0,0,0,0,0
23.06.22,07:45:16,486315965,199802590,1,06.06.00,2,scale,like,0,20444,1,pleasant1.jpg,-2,1,pleasant2.jpg,-2,1,pleasant3.jpg,-2,1,pleasant4.jpg,-2,1,unpleasant1.jpg,-2,1,unpleasant2.jpg,-2,1,unpleasant3.jpg,-2,1,unpleasant4.jpg,-2,1,Please use the mouse to click on the desired response option!,-2
23.06.22,07:45:16,486315965,199802590,1,06.06.00,3,scale,positive,0,1842,1,pleasant1.jpg,-6,1,pleasant2.jpg,-6,1,pleasant3.jpg,-6,1,pleasant4.jpg,-6,1,unpleasant1.jpg,-6,1,unpleasant2.jpg,-6,1,unpleasant3.jpg,-6,1,unpleasant4.jpg,-6,1,Please use the mouse to click on the desired response option!,-6
23.06.22,07:45:16,486315965,199802590,1,06.06.00,4,scale,prefer,0,1616,1,pleasant1.jpg,0,1,pleasant2.jpg,0,1,pleasant3.jpg,0,1,pleasant4.jpg,0,1,unpleasant1.jpg,0,1,unpleasant2.jpg,0,1,unpleasant3.jpg,0,1,unpleasant4.jpg,0,1,Please use the mouse to click on the desired response option!,0
23.06.22,04:45:03,604663550,47022865,1,06.06.00,1,scale,instructions,1,18475,1,"This is the second of the six tasks. You will be presented with a number of trials. On each trial, you will be asked to make a rating between two categories by clicking a number between 1 and 7.  1 indicates a strong preference for the category presented on the left, whereas 7 represents a strong preference for the category presented on the right. 4 indcates no preference.  When you are ready to begin, please press the spacebar.",-16,0,0,0,0,0,0,0,0,0,0,0,0,0,0,0,0,0,0,0,0,0,0,0,0
23.06.22,04:45:03,604663550,47022865,1,06.06.00,2,scale,like,0,21998,1,pleasant1.jpg,-15,1,pleasant2.jpg,-15,1,pleasant3.jpg,-15,1,pleasant4.jpg,-15,1,unpleasant1.jpg,-15,1,unpleasant2.jpg,-15,1,unpleasant3.jpg,-15,1,unpleasant4.jpg,-15,1,Please use the mouse to click on the desired response option!,-15
23.06.22,04:45:03,604663550,47022865,1,06.06.00,3,scale,positive,0,1738,1,pleasant1.jpg,-2,1,pleasant2.jpg,-2,1,pleasant3.jpg,-2,1,pleasant4.jpg,-2,1,unpleasant1.jpg,-2,1,unpleasant2.jpg,-2,1,unpleasant3.jpg,-2,1,unpleasant4.jpg,-2,1,Please use the mouse to click on the desired response option!,-2
23.06.22,04:45:03,604663550,47022865,1,06.06.00,4,scale,prefer,0,12449,1,pleasant1.jpg,-5,1,pleasant2.jpg,-5,1,pleasant3.jpg,-5,1,pleasant4.jpg,-5,1,unpleasant1.jpg,-5,1,unpleasant2.jpg,-5,1,unpleasant3.jpg,-5,1,unpleasant4.jpg,-5,1,Please use the mouse to click on the desired response option!,-5
23.06.22,12:48:19,942071899,295696078,1,06.06.00,1,scale,instructions,1,13018,1,"This is the second of the six tasks. You will be presented with a number of trials. On each trial, you will be asked to make a rating between two categories by clicking a number between 1 and 7.  1 indicates a strong preference for the category presented on the left, whereas 7 represents a strong preference for the category presented on the right. 4 indcates no preference.  When you are ready to begin, please press the spacebar.",6,0,0,0,0,0,0,0,0,0,0,0,0,0,0,0,0,0,0,0,0,0,0,0,0
23.06.22,12:48:19,942071899,295696078,1,06.06.00,2,scale,like,0,11636,1,pleasant1.jpg,4,1,pleasant2.jpg,4,1,pleasant3.jpg,4,1,pleasant4.jpg,4,1,unpleasant1.jpg,4,1,unpleasant2.jpg,4,1,unpleasant3.jpg,4,1,unpleasant4.jpg,4,1,Please use the mouse to click on the desired response option!,4
23.06.22,12:48:19,942071899,295696078,1,06.06.00,3,scale,positive,0,5607,1,pleasant1.jpg,4,1,pleasant2.jpg,4,1,pleasant3.jpg,4,1,pleasant4.jpg,4,1,unpleasant1.jpg,4,1,unpleasant2.jpg,4,1,unpleasant3.jpg,4,1,unpleasant4.jpg,4,1,Please use the mouse to click on the desired response option!,4
23.06.22,12:48:19,942071899,295696078,1,06.06.00,4,scale,prefer,0,4671,1,pleasant1.jpg,7,1,pleasant2.jpg,7,1,pleasant3.jpg,7,1,pleasant4.jpg,7,1,unpleasant1.jpg,7,1,unpleasant2.jpg,7,1,unpleasant3.jpg,7,1,unpleasant4.jpg,7,1,Please use the mouse to click on the desired response option!,7
23.06.22,12:50:22,650977857,32034696,1,06.06.00,1,scale,instructions,1,15667,1,"This is the second of the six tasks. You will be presented with a number of trials. On each trial, you will be asked to make a rating between two categories by clicking a number between 1 and 7.  1 indicates a strong preference for the category presented on the left, whereas 7 represents a strong preference for the category presented on the right. 4 indcates no preference.  When you are ready to begin, please press the spacebar.",-16,0,0,0,0,0,0,0,0,0,0,0,0,0,0,0,0,0,0,0,0,0,0,0,0
23.06.22,12:50:22,650977857,32034696,1,06.06.00,2,scale,like,0,7570,1,pleasant1.jpg,22,1,pleasant2.jpg,22,1,pleasant3.jpg,22,1,pleasant4.jpg,22,1,unpleasant1.jpg,22,1,unpleasant2.jpg,22,1,unpleasant3.jpg,22,1,unpleasant4.jpg,22,1,Please use the mouse to click on the desired response option!,22
23.06.22,12:50:22,650977857,32034696,1,06.06.00,3,scale,positive,0,5928,1,pleasant1.jpg,-3,1,pleasant2.jpg,-3,1,pleasant3.jpg,-3,1,pleasant4.jpg,-3,1,unpleasant1.jpg,-3,1,unpleasant2.jpg,-3,1,unpleasant3.jpg,-3,1,unpleasant4.jpg,-3,1,Please use the mouse to click on the desired response option!,-3
23.06.22,12:50:22,650977857,32034696,1,06.06.00,4,scale,prefer,0,5544,1,pleasant1.jpg,-7,1,pleasant2.jpg,-7,1,pleasant3.jpg,-7,1,pleasant4.jpg,-7,1,unpleasant1.jpg,-7,1,unpleasant2.jpg,-7,1,unpleasant3.jpg,-7,1,unpleasant4.jpg,-7,1,Please use the mouse to click on the desired response option!,-7
23.06.22,12:50:52,102160010,494447594,1,06.06.00,1,scale,instructions,1,33397,1,"This is the second of the six tasks. You will be presented with a number of trials. On each trial, you will be asked to make a rating between two categories by clicking a number between 1 and 7.  1 indicates a strong preference for the category presented on the left, whereas 7 represents a strong preference for the category presented on the right. 4 indcates no preference.  When you are ready to begin, please press the spacebar.",27,0,0,0,0,0,0,0,0,0,0,0,0,0,0,0,0,0,0,0,0,0,0,0,0
23.06.22,12:50:52,102160010,494447594,1,06.06.00,2,scale,like,0,13990,1,pleasant1.jpg,10,1,pleasant2.jpg,10,1,pleasant3.jpg,10,1,pleasant4.jpg,10,1,unpleasant1.jpg,10,1,unpleasant2.jpg,10,1,unpleasant3.jpg,10,1,unpleasant4.jpg,10,1,Please use the mouse to click on the desired response option!,10
23.06.22,12:50:52,102160010,494447594,1,06.06.00,3,scale,positive,0,21660,1,pleasant1.jpg,1,1,pleasant2.jpg,1,1,pleasant3.jpg,1,1,pleasant4.jpg,1,1,unpleasant1.jpg,1,1,unpleasant2.jpg,1,1,unpleasant3.jpg,1,1,unpleasant4.jpg,1,1,Please use the mouse to click on the desired response option!,1
23.06.22,12:50:52,102160010,494447594,1,06.06.00,4,scale,prefer,0,8010,1,pleasant1.jpg,2,1,pleasant2.jpg,2,1,pleasant3.jpg,2,1,pleasant4.jpg,2,1,unpleasant1.jpg,2,1,unpleasant2.jpg,2,1,unpleasant3.jpg,2,1,unpleasant4.jpg,2,1,Please use the mouse to click on the desired response option!,2
23.06.22,12:53:51,375737077,238678139,1,06.06.00,1,scale,instructions,1,14874,1,"This is the second of the six tasks. You will be presented with a number of trials. On each trial, you will be asked to make a rating between two categories by clicking a number between 1 and 7.  1 indicates a strong preference for the category presented on the left, whereas 7 represents a strong preference for the category presented on the right. 4 indcates no preference.  When you are ready to begin, please press the spacebar.",-16,0,0,0,0,0,0,0,0,0,0,0,0,0,0,0,0,0,0,0,0,0,0,0,0
23.06.22,12:53:51,375737077,238678139,1,06.06.00,2,scale,like,0,10852,1,pleasant1.jpg,-16,1,pleasant2.jpg,-16,1,pleasant3.jpg,-16,1,pleasant4.jpg,-16,1,unpleasant1.jpg,-16,1,unpleasant2.jpg,-16,1,unpleasant3.jpg,-16,1,unpleasant4.jpg,-16,1,Please use the mouse to click on the desired response option!,-16
23.06.22,12:53:51,375737077,238678139,1,06.06.00,3,scale,positive,0,5549,1,pleasant1.jpg,-8,1,pleasant2.jpg,-8,1,pleasant3.jpg,-8,1,pleasant4.jpg,-8,1,unpleasant1.jpg,-8,1,unpleasant2.jpg,-8,1,unpleasant3.jpg,-8,1,unpleasant4.jpg,-8,1,Please use the mouse to click on the desired response option!,-8
23.06.22,12:53:51,375737077,238678139,1,06.06.00,4,scale,prefer,0,5522,1,pleasant1.jpg,-10,1,pleasant2.jpg,-10,1,pleasant3.jpg,-10,1,pleasant4.jpg,-10,1,unpleasant1.jpg,-10,1,unpleasant2.jpg,-10,1,unpleasant3.jpg,-10,1,unpleasant4.jpg,-10,1,Please use the mouse to click on the desired response option!,-10
23.06.22,12:54:04,501120534,59367911,1,06.06.00,1,scale,instructions,1,26668,1,"This is the second of the six tasks. You will be presented with a number of trials. On each trial, you will be asked to make a rating between two categories by clicking a number between 1 and 7.  1 indicates a strong preference for the category presented on the left, whereas 7 represents a strong preference for the category presented on the right. 4 indcates no preference.  When you are ready to begin, please press the spacebar.",-16,0,0,0,0,0,0,0,0,0,0,0,0,0,0,0,0,0,0,0,0,0,0,0,0
23.06.22,12:54:04,501120534,59367911,1,06.06.00,2,scale,like,0,11453,1,pleasant1.jpg,29,1,pleasant2.jpg,29,1,pleasant3.jpg,29,1,pleasant4.jpg,29,1,unpleasant1.jpg,29,1,unpleasant2.jpg,29,1,unpleasant3.jpg,29,1,unpleasant4.jpg,29,1,Please use the mouse to click on the desired response option!,29
23.06.22,12:54:04,501120534,59367911,1,06.06.00,3,scale,positive,0,3776,1,pleasant1.jpg,-6,1,pleasant2.jpg,-6,1,pleasant3.jpg,-6,1,pleasant4.jpg,-6,1,unpleasant1.jpg,-6,1,unpleasant2.jpg,-6,1,unpleasant3.jpg,-6,1,unpleasant4.jpg,-6,1,Please use the mouse to click on the desired response option!,-6
23.06.22,12:54:04,501120534,59367911,1,06.06.00,4,scale,prefer,0,4399,1,pleasant1.jpg,-8,1,pleasant2.jpg,-8,1,pleasant3.jpg,-8,1,pleasant4.jpg,-8,1,unpleasant1.jpg,-8,1,unpleasant2.jpg,-8,1,unpleasant3.jpg,-8,1,unpleasant4.jpg,-8,1,Please use the mouse to click on the desired response option!,-8
23.06.22,12:55:14,196403917,586346915,1,06.06.00,1,scale,instructions,1,12417,1,"This is the second of the six tasks. You will be presented with a number of trials. On each trial, you will be asked to make a rating between two categories by clicking a number between 1 and 7.  1 indicates a strong preference for the category presented on the left, whereas 7 represents a strong preference for the category presented on the right. 4 indcates no preference.  When you are ready to begin, please press the spacebar.",-20,0,0,0,0,0,0,0,0,0,0,0,0,0,0,0,0,0,0,0,0,0,0,0,0
23.06.22,12:55:14,196403917,586346915,1,06.06.00,2,scale,like,0,8999,1,pleasant1.jpg,-19,1,pleasant2.jpg,-19,1,pleasant3.jpg,-19,1,pleasant4.jpg,-19,1,unpleasant1.jpg,-19,1,unpleasant2.jpg,-19,1,unpleasant3.jpg,-19,1,unpleasant4.jpg,-19,1,Please use the mouse to click on the desired response option!,-19
23.06.22,12:55:14,196403917,586346915,1,06.06.00,3,scale,positive,0,2975,1,pleasant1.jpg,-2,1,pleasant2.jpg,-2,1,pleasant3.jpg,-2,1,pleasant4.jpg,-2,1,unpleasant1.jpg,-2,1,unpleasant2.jpg,-2,1,unpleasant3.jpg,-2,1,unpleasant4.jpg,-2,1,Please use the mouse to click on the desired response option!,-2
23.06.22,12:55:14,196403917,586346915,1,06.06.00,4,scale,prefer,0,6333,1,pleasant1.jpg,-4,1,pleasant2.jpg,-4,1,pleasant3.jpg,-4,1,pleasant4.jpg,-4,1,unpleasant1.jpg,-4,1,unpleasant2.jpg,-4,1,unpleasant3.jpg,-4,1,unpleasant4.jpg,-4,1,Please use the mouse to click on the desired response option!,-4
23.06.22,12:54:55,523440644,386661197,1,06.06.00,1,scale,instructions,1,23532,1,"This is the second of the six tasks. You will be presented with a number of trials. On each trial, you will be asked to make a rating between two categories by clicking a number between 1 and 7.  1 indicates a strong preference for the category presented on the left, whereas 7 represents a strong preference for the category presented on the right. 4 indcates no preference.  When you are ready to begin, please press the spacebar.",-16,0,0,0,0,0,0,0,0,0,0,0,0,0,0,0,0,0,0,0,0,0,0,0,0
23.06.22,12:54:55,523440644,386661197,1,06.06.00,2,scale,like,0,14605,1,pleasant1.jpg,-16,1,pleasant2.jpg,-16,1,pleasant3.jpg,-16,1,pleasant4.jpg,-16,1,unpleasant1.jpg,-16,1,unpleasant2.jpg,-16,1,unpleasant3.jpg,-16,1,unpleasant4.jpg,-16,1,Please use the mouse to click on the desired response option!,-16
23.06.22,12:54:55,523440644,386661197,1,06.06.00,3,scale,positive,0,13594,1,pleasant1.jpg,-5,1,pleasant2.jpg,-5,1,pleasant3.jpg,-5,1,pleasant4.jpg,-5,1,unpleasant1.jpg,-5,1,unpleasant2.jpg,-5,1,unpleasant3.jpg,-5,1,unpleasant4.jpg,-5,1,Please use the mouse to click on the desired response option!,-5
23.06.22,12:54:55,523440644,386661197,1,06.06.00,4,scale,prefer,0,6334,1,pleasant1.jpg,-16,1,pleasant2.jpg,-16,1,pleasant3.jpg,-16,1,pleasant4.jpg,-16,1,unpleasant1.jpg,-16,1,unpleasant2.jpg,-16,1,unpleasant3.jpg,-16,1,unpleasant4.jpg,-16,1,Please use the mouse to click on the desired response option!,-16
23.06.22,12:55:23,137468350,764499289,1,06.06.00,1,scale,instructions,1,15453,1,"This is the second of the six tasks. You will be presented with a number of trials. On each trial, you will be asked to make a rating between two categories by clicking a number between 1 and 7.  1 indicates a strong preference for the category presented on the left, whereas 7 represents a strong preference for the category presented on the right. 4 indcates no preference.  When you are ready to begin, please press the spacebar.",-13,0,0,0,0,0,0,0,0,0,0,0,0,0,0,0,0,0,0,0,0,0,0,0,0
23.06.22,12:55:23,137468350,764499289,1,06.06.00,2,scale,like,0,9302,1,pleasant1.jpg,-16,1,pleasant2.jpg,-16,1,pleasant3.jpg,-16,1,pleasant4.jpg,-16,1,unpleasant1.jpg,-16,1,unpleasant2.jpg,-16,1,unpleasant3.jpg,-16,1,unpleasant4.jpg,-16,1,Please use the mouse to click on the desired response option!,-16
23.06.22,12:55:23,137468350,764499289,1,06.06.00,3,scale,positive,0,7367,1,pleasant1.jpg,-5,1,pleasant2.jpg,-5,1,pleasant3.jpg,-5,1,pleasant4.jpg,-5,1,unpleasant1.jpg,-5,1,unpleasant2.jpg,-5,1,unpleasant3.jpg,-5,1,unpleasant4.jpg,-5,1,Please use the mouse to click on the desired response option!,-5
23.06.22,12:55:23,137468350,764499289,1,06.06.00,4,scale,prefer,0,3911,1,pleasant1.jpg,-7,1,pleasant2.jpg,-7,1,pleasant3.jpg,-7,1,pleasant4.jpg,-7,1,unpleasant1.jpg,-7,1,unpleasant2.jpg,-7,1,unpleasant3.jpg,-7,1,unpleasant4.jpg,-7,1,Please use the mouse to click on the desired response option!,-7
23.06.22,12:57:53,730851020,100125154,1,06.06.00,1,scale,instructions,1,14972,1,"This is the second of the six tasks. You will be presented with a number of trials. On each trial, you will be asked to make a rating between two categories by clicking a number between 1 and 7.  1 indicates a strong preference for the category presented on the left, whereas 7 represents a strong preference for the category presented on the right. 4 indcates no preference.  When you are ready to begin, please press the spacebar.",-16,0,0,0,0,0,0,0,0,0,0,0,0,0,0,0,0,0,0,0,0,0,0,0,0
23.06.22,12:57:53,730851020,100125154,1,06.06.00,2,scale,like,0,15372,1,pleasant1.jpg,-16,1,pleasant2.jpg,-16,1,pleasant3.jpg,-16,1,pleasant4.jpg,-16,1,unpleasant1.jpg,-16,1,unpleasant2.jpg,-16,1,unpleasant3.jpg,-16,1,unpleasant4.jpg,-16,1,Please use the mouse to click on the desired response option!,-16
23.06.22,12:57:53,730851020,100125154,1,06.06.00,3,scale,positive,0,5018,1,pleasant1.jpg,-2,1,pleasant2.jpg,-2,1,pleasant3.jpg,-2,1,pleasant4.jpg,-2,1,unpleasant1.jpg,-2,1,unpleasant2.jpg,-2,1,unpleasant3.jpg,-2,1,unpleasant4.jpg,-2,1,Please use the mouse to click on the desired response option!,-2
23.06.22,12:57:53,730851020,100125154,1,06.06.00,4,scale,prefer,0,6526,1,pleasant1.jpg,-10,1,pleasant2.jpg,-10,1,pleasant3.jpg,-10,1,pleasant4.jpg,-10,1,unpleasant1.jpg,-10,1,unpleasant2.jpg,-10,1,unpleasant3.jpg,-10,1,unpleasant4.jpg,-10,1,Please use the mouse to click on the desired response option!,-10
23.06.22,12:59:16,225814876,161234436,1,06.06.00,1,scale,instructions,1,14090,1,"This is the second of the six tasks. You will be presented with a number of trials. On each trial, you will be asked to make a rating between two categories by clicking a number between 1 and 7.  1 indicates a strong preference for the category presented on the left, whereas 7 represents a strong preference for the category presented on the right. 4 indcates no preference.  When you are ready to begin, please press the spacebar.",-16,0,0,0,0,0,0,0,0,0,0,0,0,0,0,0,0,0,0,0,0,0,0,0,0
23.06.22,12:59:16,225814876,161234436,1,06.06.00,2,scale,like,0,11018,1,pleasant1.jpg,-16,1,pleasant2.jpg,-16,1,pleasant3.jpg,-16,1,pleasant4.jpg,-16,1,unpleasant1.jpg,-16,1,unpleasant2.jpg,-16,1,unpleasant3.jpg,-16,1,unpleasant4.jpg,-16,1,Please use the mouse to click on the desired response option!,-16
23.06.22,12:59:16,225814876,161234436,1,06.06.00,3,scale,positive,0,4368,1,pleasant1.jpg,0,1,pleasant2.jpg,0,1,pleasant3.jpg,0,1,pleasant4.jpg,0,1,unpleasant1.jpg,0,1,unpleasant2.jpg,0,1,unpleasant3.jpg,0,1,unpleasant4.jpg,0,1,Please use the mouse to click on the desired response option!,0
23.06.22,12:59:16,225814876,161234436,1,06.06.00,4,scale,prefer,0,3708,1,pleasant1.jpg,-6,1,pleasant2.jpg,-6,1,pleasant3.jpg,-6,1,pleasant4.jpg,-6,1,unpleasant1.jpg,-6,1,unpleasant2.jpg,-6,1,unpleasant3.jpg,-6,1,unpleasant4.jpg,-6,1,Please use the mouse to click on the desired response option!,-6
23.06.22,13:00:00,458701483,238079276,1,06.06.00,1,scale,instructions,1,10941,1,"This is the second of the six tasks. You will be presented with a number of trials. On each trial, you will be asked to make a rating between two categories by clicking a number between 1 and 7.  1 indicates a strong preference for the category presented on the left, whereas 7 represents a strong preference for the category presented on the right. 4 indcates no preference.  When you are ready to begin, please press the spacebar.",17,0,0,0,0,0,0,0,0,0,0,0,0,0,0,0,0,0,0,0,0,0,0,0,0
23.06.22,13:00:00,458701483,238079276,1,06.06.00,2,scale,like,0,7166,1,pleasant1.jpg,12,1,pleasant2.jpg,12,1,pleasant3.jpg,12,1,pleasant4.jpg,12,1,unpleasant1.jpg,12,1,unpleasant2.jpg,12,1,unpleasant3.jpg,12,1,unpleasant4.jpg,12,1,Please use the mouse to click on the desired response option!,12
23.06.22,13:00:00,458701483,238079276,1,06.06.00,3,scale,positive,0,6474,1,pleasant1.jpg,5,1,pleasant2.jpg,5,1,pleasant3.jpg,5,1,pleasant4.jpg,5,1,unpleasant1.jpg,5,1,unpleasant2.jpg,5,1,unpleasant3.jpg,5,1,unpleasant4.jpg,5,1,Please use the mouse to click on the desired response option!,5
23.06.22,13:00:00,458701483,238079276,1,06.06.00,4,scale,prefer,0,4199,1,pleasant1.jpg,5,1,pleasant2.jpg,5,1,pleasant3.jpg,5,1,pleasant4.jpg,5,1,unpleasant1.jpg,5,1,unpleasant2.jpg,5,1,unpleasant3.jpg,5,1,unpleasant4.jpg,5,1,Please use the mouse to click on the desired response option!,5
23.06.22,13:01:08,913113577,591041139,1,06.06.00,1,scale,instructions,1,13422,1,"This is the second of the six tasks. You will be presented with a number of trials. On each trial, you will be asked to make a rating between two categories by clicking a number between 1 and 7.  1 indicates a strong preference for the category presented on the left, whereas 7 represents a strong preference for the category presented on the right. 4 indcates no preference.  When you are ready to begin, please press the spacebar.",-7,0,0,0,0,0,0,0,0,0,0,0,0,0,0,0,0,0,0,0,0,0,0,0,0
23.06.22,13:01:08,913113577,591041139,1,06.06.00,2,scale,like,0,15365,1,pleasant1.jpg,-8,1,pleasant2.jpg,-8,1,pleasant3.jpg,-8,1,pleasant4.jpg,-8,1,unpleasant1.jpg,-8,1,unpleasant2.jpg,-8,1,unpleasant3.jpg,-8,1,unpleasant4.jpg,-8,1,Please use the mouse to click on the desired response option!,-8
23.06.22,13:01:08,913113577,591041139,1,06.06.00,3,scale,positive,0,7089,1,pleasant1.jpg,13,1,pleasant2.jpg,13,1,pleasant3.jpg,13,1,pleasant4.jpg,13,1,unpleasant1.jpg,13,1,unpleasant2.jpg,13,1,unpleasant3.jpg,13,1,unpleasant4.jpg,13,1,Please use the mouse to click on the desired response option!,13
23.06.22,13:01:08,913113577,591041139,1,06.06.00,4,scale,prefer,0,3040,1,pleasant1.jpg,9,1,pleasant2.jpg,9,1,pleasant3.jpg,9,1,pleasant4.jpg,9,1,unpleasant1.jpg,9,1,unpleasant2.jpg,9,1,unpleasant3.jpg,9,1,unpleasant4.jpg,9,1,Please use the mouse to click on the desired response option!,9
23.06.22,08:01:40,559262084,627537443,1,06.06.00,1,scale,instructions,1,15158,1,"This is the second of the six tasks. You will be presented with a number of trials. On each trial, you will be asked to make a rating between two categories by clicking a number between 1 and 7.  1 indicates a strong preference for the category presented on the left, whereas 7 represents a strong preference for the category presented on the right. 4 indcates no preference.  When you are ready to begin, please press the spacebar.",4,0,0,0,0,0,0,0,0,0,0,0,0,0,0,0,0,0,0,0,0,0,0,0,0
23.06.22,08:01:40,559262084,627537443,1,06.06.00,2,scale,like,0,4157,1,pleasant1.jpg,1,1,pleasant2.jpg,1,1,pleasant3.jpg,1,1,pleasant4.jpg,1,1,unpleasant1.jpg,1,1,unpleasant2.jpg,1,1,unpleasant3.jpg,1,1,unpleasant4.jpg,1,1,Please use the mouse to click on the desired response option!,1
23.06.22,08:01:40,559262084,627537443,1,06.06.00,3,scale,positive,0,6448,1,pleasant1.jpg,10,1,pleasant2.jpg,10,1,pleasant3.jpg,10,1,pleasant4.jpg,10,1,unpleasant1.jpg,10,1,unpleasant2.jpg,10,1,unpleasant3.jpg,10,1,unpleasant4.jpg,10,1,Please use the mouse to click on the desired response option!,10
23.06.22,08:01:40,559262084,627537443,1,06.06.00,4,scale,prefer,0,1686,1,pleasant1.jpg,4,1,pleasant2.jpg,4,1,pleasant3.jpg,4,1,pleasant4.jpg,4,1,unpleasant1.jpg,4,1,unpleasant2.jpg,4,1,unpleasant3.jpg,4,1,unpleasant4.jpg,4,1,Please use the mouse to click on the desired response option!,4
23.06.22,13:02:10,794193661,621686155,1,06.06.00,1,scale,instructions,1,15707,1,"This is the second of the six tasks. You will be presented with a number of trials. On each trial, you will be asked to make a rating between two categories by clicking a number between 1 and 7.  1 indicates a strong preference for the category presented on the left, whereas 7 represents a strong preference for the category presented on the right. 4 indcates no preference.  When you are ready to begin, please press the spacebar.",6,0,0,0,0,0,0,0,0,0,0,0,0,0,0,0,0,0,0,0,0,0,0,0,0
23.06.22,13:02:10,794193661,621686155,1,06.06.00,2,scale,like,0,4421,1,pleasant1.jpg,3,1,pleasant2.jpg,3,1,pleasant3.jpg,3,1,pleasant4.jpg,3,1,unpleasant1.jpg,3,1,unpleasant2.jpg,3,1,unpleasant3.jpg,3,1,unpleasant4.jpg,3,1,Please use the mouse to click on the desired response option!,3
23.06.22,13:02:10,794193661,621686155,1,06.06.00,3,scale,positive,0,3550,1,pleasant1.jpg,5,1,pleasant2.jpg,5,1,pleasant3.jpg,5,1,pleasant4.jpg,5,1,unpleasant1.jpg,5,1,unpleasant2.jpg,5,1,unpleasant3.jpg,5,1,unpleasant4.jpg,5,1,Please use the mouse to click on the desired response option!,5
23.06.22,13:02:10,794193661,621686155,1,06.06.00,4,scale,prefer,0,2595,1,pleasant1.jpg,2,1,pleasant2.jpg,2,1,pleasant3.jpg,2,1,pleasant4.jpg,2,1,unpleasant1.jpg,2,1,unpleasant2.jpg,2,1,unpleasant3.jpg,2,1,unpleasant4.jpg,2,1,Please use the mouse to click on the desired response option!,2
23.06.22,14:02:04,393030402,561842983,1,06.06.00,1,scale,instructions,1,23386,1,"This is the second of the six tasks. You will be presented with a number of trials. On each trial, you will be asked to make a rating between two categories by clicking a number between 1 and 7.  1 indicates a strong preference for the category presented on the left, whereas 7 represents a strong preference for the category presented on the right. 4 indcates no preference.  When you are ready to begin, please press the spacebar.",4,0,0,0,0,0,0,0,0,0,0,0,0,0,0,0,0,0,0,0,0,0,0,0,0
23.06.22,14:02:04,393030402,561842983,1,06.06.00,2,scale,like,0,16045,1,pleasant1.jpg,24,1,pleasant2.jpg,24,1,pleasant3.jpg,24,1,pleasant4.jpg,24,1,unpleasant1.jpg,24,1,unpleasant2.jpg,24,1,unpleasant3.jpg,24,1,unpleasant4.jpg,24,1,Please use the mouse to click on the desired response option!,24
23.06.22,14:02:04,393030402,561842983,1,06.06.00,3,scale,positive,0,4028,1,pleasant1.jpg,-3,1,pleasant2.jpg,-3,1,pleasant3.jpg,-3,1,pleasant4.jpg,-3,1,unpleasant1.jpg,-3,1,unpleasant2.jpg,-3,1,unpleasant3.jpg,-3,1,unpleasant4.jpg,-3,1,Please use the mouse to click on the desired response option!,-3
23.06.22,14:02:04,393030402,561842983,1,06.06.00,4,scale,prefer,0,4242,1,pleasant1.jpg,-6,1,pleasant2.jpg,-6,1,pleasant3.jpg,-6,1,pleasant4.jpg,-6,1,unpleasant1.jpg,-6,1,unpleasant2.jpg,-6,1,unpleasant3.jpg,-6,1,unpleasant4.jpg,-6,1,Please use the mouse to click on the desired response option!,-6
23.06.22,13:02:54,43586182,601833546,1,06.06.00,1,scale,instructions,1,19881,1,"This is the second of the six tasks. You will be presented with a number of trials. On each trial, you will be asked to make a rating between two categories by clicking a number between 1 and 7.  1 indicates a strong preference for the category presented on the left, whereas 7 represents a strong preference for the category presented on the right. 4 indcates no preference.  When you are ready to begin, please press the spacebar.",-16,0,0,0,0,0,0,0,0,0,0,0,0,0,0,0,0,0,0,0,0,0,0,0,0
23.06.22,13:02:54,43586182,601833546,1,06.06.00,2,scale,like,0,11955,1,pleasant1.jpg,-16,1,pleasant2.jpg,-16,1,pleasant3.jpg,-16,1,pleasant4.jpg,-16,1,unpleasant1.jpg,-16,1,unpleasant2.jpg,-16,1,unpleasant3.jpg,-16,1,unpleasant4.jpg,-16,1,Please use the mouse to click on the desired response option!,-16
23.06.22,13:02:54,43586182,601833546,1,06.06.00,3,scale,positive,0,6597,1,pleasant1.jpg,-4,1,pleasant2.jpg,-4,1,pleasant3.jpg,-4,1,pleasant4.jpg,-4,1,unpleasant1.jpg,-4,1,unpleasant2.jpg,-4,1,unpleasant3.jpg,-4,1,unpleasant4.jpg,-4,1,Please use the mouse to click on the desired response option!,-4
23.06.22,13:02:54,43586182,601833546,1,06.06.00,4,scale,prefer,0,12856,1,pleasant1.jpg,-7,1,pleasant2.jpg,-7,1,pleasant3.jpg,-7,1,pleasant4.jpg,-7,1,unpleasant1.jpg,-7,1,unpleasant2.jpg,-7,1,unpleasant3.jpg,-7,1,unpleasant4.jpg,-7,1,Please use the mouse to click on the desired response option!,-7
23.06.22,13:03:27,772417821,13708908,1,06.06.00,1,scale,instructions,1,9054,1,"This is the second of the six tasks. You will be presented with a number of trials. On each trial, you will be asked to make a rating between two categories by clicking a number between 1 and 7.  1 indicates a strong preference for the category presented on the left, whereas 7 represents a strong preference for the category presented on the right. 4 indcates no preference.  When you are ready to begin, please press the spacebar.",-16,0,0,0,0,0,0,0,0,0,0,0,0,0,0,0,0,0,0,0,0,0,0,0,0
23.06.22,13:03:27,772417821,13708908,1,06.06.00,2,scale,like,0,5027,1,pleasant1.jpg,-16,1,pleasant2.jpg,-16,1,pleasant3.jpg,-16,1,pleasant4.jpg,-16,1,unpleasant1.jpg,-16,1,unpleasant2.jpg,-16,1,unpleasant3.jpg,-16,1,unpleasant4.jpg,-16,1,Please use the mouse to click on the desired response option!,-16
23.06.22,13:03:27,772417821,13708908,1,06.06.00,3,scale,positive,0,1960,1,pleasant1.jpg,-10,1,pleasant2.jpg,-10,1,pleasant3.jpg,-10,1,pleasant4.jpg,-10,1,unpleasant1.jpg,-10,1,unpleasant2.jpg,-10,1,unpleasant3.jpg,-10,1,unpleasant4.jpg,-10,1,Please use the mouse to click on the desired response option!,-10
23.06.22,13:03:27,772417821,13708908,1,06.06.00,4,scale,prefer,0,7323,1,pleasant1.jpg,-10,1,pleasant2.jpg,-10,1,pleasant3.jpg,-10,1,pleasant4.jpg,-10,1,unpleasant1.jpg,-10,1,unpleasant2.jpg,-10,1,unpleasant3.jpg,-10,1,unpleasant4.jpg,-10,1,Please use the mouse to click on the desired response option!,-10
23.06.22,13:03:23,43475023,874662429,1,06.06.00,1,scale,instructions,1,29393,1,"This is the second of the six tasks. You will be presented with a number of trials. On each trial, you will be asked to make a rating between two categories by clicking a number between 1 and 7.  1 indicates a strong preference for the category presented on the left, whereas 7 represents a strong preference for the category presented on the right. 4 indcates no preference.  When you are ready to begin, please press the spacebar.",-16,0,0,0,0,0,0,0,0,0,0,0,0,0,0,0,0,0,0,0,0,0,0,0,0
23.06.22,13:03:23,43475023,874662429,1,06.06.00,2,scale,like,0,9882,1,pleasant1.jpg,-15,1,pleasant2.jpg,-15,1,pleasant3.jpg,-15,1,pleasant4.jpg,-15,1,unpleasant1.jpg,-15,1,unpleasant2.jpg,-15,1,unpleasant3.jpg,-15,1,unpleasant4.jpg,-15,1,Please use the mouse to click on the desired response option!,-15
23.06.22,13:03:23,43475023,874662429,1,06.06.00,3,scale,positive,0,5770,1,pleasant1.jpg,-6,1,pleasant2.jpg,-6,1,pleasant3.jpg,-6,1,pleasant4.jpg,-6,1,unpleasant1.jpg,-6,1,unpleasant2.jpg,-6,1,unpleasant3.jpg,-6,1,unpleasant4.jpg,-6,1,Please use the mouse to click on the desired response option!,-6
23.06.22,13:03:23,43475023,874662429,1,06.06.00,4,scale,prefer,0,2077,1,pleasant1.jpg,-8,1,pleasant2.jpg,-8,1,pleasant3.jpg,-8,1,pleasant4.jpg,-8,1,unpleasant1.jpg,-8,1,unpleasant2.jpg,-8,1,unpleasant3.jpg,-8,1,unpleasant4.jpg,-8,1,Please use the mouse to click on the desired response option!,-8
23.06.22,13:03:35,615369952,699441423,1,06.06.00,1,scale,instructions,1,18187,1,"This is the second of the six tasks. You will be presented with a number of trials. On each trial, you will be asked to make a rating between two categories by clicking a number between 1 and 7.  1 indicates a strong preference for the category presented on the left, whereas 7 represents a strong preference for the category presented on the right. 4 indcates no preference.  When you are ready to begin, please press the spacebar.",-15,0,0,0,0,0,0,0,0,0,0,0,0,0,0,0,0,0,0,0,0,0,0,0,0
23.06.22,13:03:35,615369952,699441423,1,06.06.00,2,scale,like,0,12570,1,pleasant1.jpg,-16,1,pleasant2.jpg,-16,1,pleasant3.jpg,-16,1,pleasant4.jpg,-16,1,unpleasant1.jpg,-16,1,unpleasant2.jpg,-16,1,unpleasant3.jpg,-16,1,unpleasant4.jpg,-16,1,Please use the mouse to click on the desired response option!,-16
23.06.22,13:03:35,615369952,699441423,1,06.06.00,3,scale,positive,0,7379,1,pleasant1.jpg,-5,1,pleasant2.jpg,-5,1,pleasant3.jpg,-5,1,pleasant4.jpg,-5,1,unpleasant1.jpg,-5,1,unpleasant2.jpg,-5,1,unpleasant3.jpg,-5,1,unpleasant4.jpg,-5,1,Please use the mouse to click on the desired response option!,-5
23.06.22,13:03:35,615369952,699441423,1,06.06.00,4,scale,prefer,0,6857,1,pleasant1.jpg,-5,1,pleasant2.jpg,-5,1,pleasant3.jpg,-5,1,pleasant4.jpg,-5,1,unpleasant1.jpg,-5,1,unpleasant2.jpg,-5,1,unpleasant3.jpg,-5,1,unpleasant4.jpg,-5,1,Please use the mouse to click on the desired response option!,-5
23.06.22,13:11:10,413662730,550721671,1,06.06.00,1,scale,instructions,1,25123,1,"This is the second of the six tasks. You will be presented with a number of trials. On each trial, you will be asked to make a rating between two categories by clicking a number between 1 and 7.  1 indicates a strong preference for the category presented on the left, whereas 7 represents a strong preference for the category presented on the right. 4 indcates no preference.  When you are ready to begin, please press the spacebar.",-9,0,0,0,0,0,0,0,0,0,0,0,0,0,0,0,0,0,0,0,0,0,0,0,0
23.06.22,13:11:10,413662730,550721671,1,06.06.00,2,scale,like,0,11631,1,pleasant1.jpg,-13,1,pleasant2.jpg,-13,1,pleasant3.jpg,-13,1,pleasant4.jpg,-13,1,unpleasant1.jpg,-13,1,unpleasant2.jpg,-13,1,unpleasant3.jpg,-13,1,unpleasant4.jpg,-13,1,Please use the mouse to click on the desired response option!,-13
23.06.22,13:11:10,413662730,550721671,1,06.06.00,3,scale,positive,0,3812,1,pleasant1.jpg,6,1,pleasant2.jpg,6,1,pleasant3.jpg,6,1,pleasant4.jpg,6,1,unpleasant1.jpg,6,1,unpleasant2.jpg,6,1,unpleasant3.jpg,6,1,unpleasant4.jpg,6,1,Please use the mouse to click on the desired response option!,6
23.06.22,13:11:10,413662730,550721671,1,06.06.00,4,scale,prefer,0,2454,1,pleasant1.jpg,4,1,pleasant2.jpg,4,1,pleasant3.jpg,4,1,pleasant4.jpg,4,1,unpleasant1.jpg,4,1,unpleasant2.jpg,4,1,unpleasant3.jpg,4,1,unpleasant4.jpg,4,1,Please use the mouse to click on the desired response option!,4
23.06.22,13:03:46,998662075,557207580,1,06.06.00,1,scale,instructions,1,14446,1,"This is the second of the six tasks. You will be presented with a number of trials. On each trial, you will be asked to make a rating between two categories by clicking a number between 1 and 7.  1 indicates a strong preference for the category presented on the left, whereas 7 represents a strong preference for the category presented on the right. 4 indcates no preference.  When you are ready to begin, please press the spacebar.",-9,0,0,0,0,0,0,0,0,0,0,0,0,0,0,0,0,0,0,0,0,0,0,0,0
23.06.22,13:03:46,998662075,557207580,1,06.06.00,2,scale,like,0,13681,1,pleasant1.jpg,-14,1,pleasant2.jpg,-14,1,pleasant3.jpg,-14,1,pleasant4.jpg,-14,1,unpleasant1.jpg,-14,1,unpleasant2.jpg,-14,1,unpleasant3.jpg,-14,1,unpleasant4.jpg,-14,1,Please use the mouse to click on the desired response option!,-14
23.06.22,13:03:46,998662075,557207580,1,06.06.00,3,scale,positive,0,13137,1,pleasant1.jpg,1,1,pleasant2.jpg,1,1,pleasant3.jpg,1,1,pleasant4.jpg,1,1,unpleasant1.jpg,1,1,unpleasant2.jpg,1,1,unpleasant3.jpg,1,1,unpleasant4.jpg,1,1,Please use the mouse to click on the desired response option!,1
23.06.22,13:03:46,998662075,557207580,1,06.06.00,4,scale,prefer,0,4749,1,pleasant1.jpg,0,1,pleasant2.jpg,0,1,pleasant3.jpg,0,1,pleasant4.jpg,0,1,unpleasant1.jpg,0,1,unpleasant2.jpg,0,1,unpleasant3.jpg,0,1,unpleasant4.jpg,0,1,Please use the mouse to click on the desired response option!,0
23.06.22,13:04:40,644435460,343944905,1,06.06.00,1,scale,instructions,1,9783,1,"This is the second of the six tasks. You will be presented with a number of trials. On each trial, you will be asked to make a rating between two categories by clicking a number between 1 and 7.  1 indicates a strong preference for the category presented on the left, whereas 7 represents a strong preference for the category presented on the right. 4 indcates no preference.  When you are ready to begin, please press the spacebar.",-16,0,0,0,0,0,0,0,0,0,0,0,0,0,0,0,0,0,0,0,0,0,0,0,0
23.06.22,13:04:40,644435460,343944905,1,06.06.00,2,scale,like,0,7544,1,pleasant1.jpg,14,1,pleasant2.jpg,14,1,pleasant3.jpg,14,1,pleasant4.jpg,14,1,unpleasant1.jpg,14,1,unpleasant2.jpg,14,1,unpleasant3.jpg,14,1,unpleasant4.jpg,14,1,Please use the mouse to click on the desired response option!,14
23.06.22,13:04:40,644435460,343944905,1,06.06.00,3,scale,positive,0,5179,1,pleasant1.jpg,4,1,pleasant2.jpg,4,1,pleasant3.jpg,4,1,pleasant4.jpg,4,1,unpleasant1.jpg,4,1,unpleasant2.jpg,4,1,unpleasant3.jpg,4,1,unpleasant4.jpg,4,1,Please use the mouse to click on the desired response option!,4
23.06.22,13:04:40,644435460,343944905,1,06.06.00,4,scale,prefer,0,4424,1,pleasant1.jpg,-3,1,pleasant2.jpg,-3,1,pleasant3.jpg,-3,1,pleasant4.jpg,-3,1,unpleasant1.jpg,-3,1,unpleasant2.jpg,-3,1,unpleasant3.jpg,-3,1,unpleasant4.jpg,-3,1,Please use the mouse to click on the desired response option!,-3
23.06.22,13:04:41,989447407,841303698,1,06.06.00,1,scale,instructions,1,13208,1,"This is the second of the six tasks. You will be presented with a number of trials. On each trial, you will be asked to make a rating between two categories by clicking a number between 1 and 7.  1 indicates a strong preference for the category presented on the left, whereas 7 represents a strong preference for the category presented on the right. 4 indcates no preference.  When you are ready to begin, please press the spacebar.",-16,0,0,0,0,0,0,0,0,0,0,0,0,0,0,0,0,0,0,0,0,0,0,0,0
23.06.22,13:04:41,989447407,841303698,1,06.06.00,2,scale,like,0,10155,1,pleasant1.jpg,-16,1,pleasant2.jpg,-16,1,pleasant3.jpg,-16,1,pleasant4.jpg,-16,1,unpleasant1.jpg,-16,1,unpleasant2.jpg,-16,1,unpleasant3.jpg,-16,1,unpleasant4.jpg,-16,1,Please use the mouse to click on the desired response option!,-16
23.06.22,13:04:41,989447407,841303698,1,06.06.00,3,scale,positive,0,2618,1,pleasant1.jpg,-6,1,pleasant2.jpg,-6,1,pleasant3.jpg,-6,1,pleasant4.jpg,-6,1,unpleasant1.jpg,-6,1,unpleasant2.jpg,-6,1,unpleasant3.jpg,-6,1,unpleasant4.jpg,-6,1,Please use the mouse to click on the desired response option!,-6
23.06.22,13:04:41,989447407,841303698,1,06.06.00,4,scale,prefer,0,3722,1,pleasant1.jpg,-5,1,pleasant2.jpg,-5,1,pleasant3.jpg,-5,1,pleasant4.jpg,-5,1,unpleasant1.jpg,-5,1,unpleasant2.jpg,-5,1,unpleasant3.jpg,-5,1,unpleasant4.jpg,-5,1,Please use the mouse to click on the desired response option!,-5
23.06.22,13:04:01,100174518,658421880,1,06.06.00,1,scale,instructions,1,50022,1,"This is the second of the six tasks. You will be presented with a number of trials. On each trial, you will be asked to make a rating between two categories by clicking a number between 1 and 7.  1 indicates a strong preference for the category presented on the left, whereas 7 represents a strong preference for the category presented on the right. 4 indcates no preference.  When you are ready to begin, please press the spacebar.",-14,0,0,0,0,0,0,0,0,0,0,0,0,0,0,0,0,0,0,0,0,0,0,0,0
23.06.22,13:04:01,100174518,658421880,1,06.06.00,2,scale,like,0,12605,1,pleasant1.jpg,32,1,pleasant2.jpg,32,1,pleasant3.jpg,32,1,pleasant4.jpg,32,1,unpleasant1.jpg,32,1,unpleasant2.jpg,32,1,unpleasant3.jpg,32,1,unpleasant4.jpg,32,1,Please use the mouse to click on the desired response option!,32
23.06.22,13:04:01,100174518,658421880,1,06.06.00,3,scale,positive,0,3253,1,pleasant1.jpg,0,1,pleasant2.jpg,0,1,pleasant3.jpg,0,1,pleasant4.jpg,0,1,unpleasant1.jpg,0,1,unpleasant2.jpg,0,1,unpleasant3.jpg,0,1,unpleasant4.jpg,0,1,Please use the mouse to click on the desired response option!,0
23.06.22,13:04:01,100174518,658421880,1,06.06.00,4,scale,prefer,0,4448,1,pleasant1.jpg,-4,1,pleasant2.jpg,-4,1,pleasant3.jpg,-4,1,pleasant4.jpg,-4,1,unpleasant1.jpg,-4,1,unpleasant2.jpg,-4,1,unpleasant3.jpg,-4,1,unpleasant4.jpg,-4,1,Please use the mouse to click on the desired response option!,-4
23.06.22,13:05:45,980335131,422087765,1,06.06.00,1,scale,instructions,1,23522,1,"This is the second of the six tasks. You will be presented with a number of trials. On each trial, you will be asked to make a rating between two categories by clicking a number between 1 and 7.  1 indicates a strong preference for the category presented on the left, whereas 7 represents a strong preference for the category presented on the right. 4 indcates no preference.  When you are ready to begin, please press the spacebar.",-4,0,0,0,0,0,0,0,0,0,0,0,0,0,0,0,0,0,0,0,0,0,0,0,0
23.06.22,13:05:45,980335131,422087765,1,06.06.00,2,scale,like,0,9595,1,pleasant1.jpg,-16,1,pleasant2.jpg,-16,1,pleasant3.jpg,-16,1,pleasant4.jpg,-16,1,unpleasant1.jpg,-16,1,unpleasant2.jpg,-16,1,unpleasant3.jpg,-16,1,unpleasant4.jpg,-16,1,Please use the mouse to click on the desired response option!,-16
23.06.22,13:05:45,980335131,422087765,1,06.06.00,3,scale,positive,0,6961,1,pleasant1.jpg,7,1,pleasant2.jpg,7,1,pleasant3.jpg,7,1,pleasant4.jpg,7,1,unpleasant1.jpg,7,1,unpleasant2.jpg,7,1,unpleasant3.jpg,7,1,unpleasant4.jpg,7,1,Please use the mouse to click on the desired response option!,7
23.06.22,13:05:45,980335131,422087765,1,06.06.00,4,scale,prefer,0,2985,1,pleasant1.jpg,2,1,pleasant2.jpg,2,1,pleasant3.jpg,2,1,pleasant4.jpg,2,1,unpleasant1.jpg,2,1,unpleasant2.jpg,2,1,unpleasant3.jpg,2,1,unpleasant4.jpg,2,1,Please use the mouse to click on the desired response option!,2
23.06.22,13:06:04,30389744,882246022,1,06.06.00,1,scale,instructions,1,33669,1,"This is the second of the six tasks. You will be presented with a number of trials. On each trial, you will be asked to make a rating between two categories by clicking a number between 1 and 7.  1 indicates a strong preference for the category presented on the left, whereas 7 represents a strong preference for the category presented on the right. 4 indcates no preference.  When you are ready to begin, please press the spacebar.",-12,0,0,0,0,0,0,0,0,0,0,0,0,0,0,0,0,0,0,0,0,0,0,0,0
23.06.22,13:06:04,30389744,882246022,1,06.06.00,2,scale,like,0,10965,1,pleasant1.jpg,21,1,pleasant2.jpg,21,1,pleasant3.jpg,21,1,pleasant4.jpg,21,1,unpleasant1.jpg,21,1,unpleasant2.jpg,21,1,unpleasant3.jpg,21,1,unpleasant4.jpg,21,1,Please use the mouse to click on the desired response option!,21
23.06.22,13:06:04,30389744,882246022,1,06.06.00,3,scale,positive,0,4256,1,pleasant1.jpg,-2,1,pleasant2.jpg,-2,1,pleasant3.jpg,-2,1,pleasant4.jpg,-2,1,unpleasant1.jpg,-2,1,unpleasant2.jpg,-2,1,unpleasant3.jpg,-2,1,unpleasant4.jpg,-2,1,Please use the mouse to click on the desired response option!,-2
23.06.22,13:06:04,30389744,882246022,1,06.06.00,4,scale,prefer,0,2577,1,pleasant1.jpg,-8,1,pleasant2.jpg,-8,1,pleasant3.jpg,-8,1,pleasant4.jpg,-8,1,unpleasant1.jpg,-8,1,unpleasant2.jpg,-8,1,unpleasant3.jpg,-8,1,unpleasant4.jpg,-8,1,Please use the mouse to click on the desired response option!,-8
23.06.22,13:06:24,426017455,293831276,1,06.06.00,1,scale,instructions,1,20178,1,"This is the second of the six tasks. You will be presented with a number of trials. On each trial, you will be asked to make a rating between two categories by clicking a number between 1 and 7.  1 indicates a strong preference for the category presented on the left, whereas 7 represents a strong preference for the category presented on the right. 4 indcates no preference.  When you are ready to begin, please press the spacebar.",-16,0,0,0,0,0,0,0,0,0,0,0,0,0,0,0,0,0,0,0,0,0,0,0,0
23.06.22,13:06:24,426017455,293831276,1,06.06.00,2,scale,like,0,12677,1,pleasant1.jpg,-16,1,pleasant2.jpg,-16,1,pleasant3.jpg,-16,1,pleasant4.jpg,-16,1,unpleasant1.jpg,-16,1,unpleasant2.jpg,-16,1,unpleasant3.jpg,-16,1,unpleasant4.jpg,-16,1,Please use the mouse to click on the desired response option!,-16
23.06.22,13:06:24,426017455,293831276,1,06.06.00,3,scale,positive,0,2299,1,pleasant1.jpg,1,1,pleasant2.jpg,1,1,pleasant3.jpg,1,1,pleasant4.jpg,1,1,unpleasant1.jpg,1,1,unpleasant2.jpg,1,1,unpleasant3.jpg,1,1,unpleasant4.jpg,1,1,Please use the mouse to click on the desired response option!,1
23.06.22,13:06:24,426017455,293831276,1,06.06.00,4,scale,prefer,0,941,1,pleasant1.jpg,-3,1,pleasant2.jpg,-3,1,pleasant3.jpg,-3,1,pleasant4.jpg,-3,1,unpleasant1.jpg,-3,1,unpleasant2.jpg,-3,1,unpleasant3.jpg,-3,1,unpleasant4.jpg,-3,1,Please use the mouse to click on the desired response option!,-3
23.06.22,21:36:07,273852442,663795436,1,06.06.00,1,scale,instructions,1,30428,1,"This is the second of the six tasks. You will be presented with a number of trials. On each trial, you will be asked to make a rating between two categories by clicking a number between 1 and 7.  1 indicates a strong preference for the category presented on the left, whereas 7 represents a strong preference for the category presented on the right. 4 indcates no preference.  When you are ready to begin, please press the spacebar.",-16,0,0,0,0,0,0,0,0,0,0,0,0,0,0,0,0,0,0,0,0,0,0,0,0
23.06.22,21:36:07,273852442,663795436,1,06.06.00,2,scale,like,0,16440,1,pleasant1.jpg,-15,1,pleasant2.jpg,-15,1,pleasant3.jpg,-15,1,pleasant4.jpg,-15,1,unpleasant1.jpg,-15,1,unpleasant2.jpg,-15,1,unpleasant3.jpg,-15,1,unpleasant4.jpg,-15,1,Please use the mouse to click on the desired response option!,-15
23.06.22,21:36:07,273852442,663795436,1,06.06.00,3,scale,positive,0,4941,1,pleasant1.jpg,-2,1,pleasant2.jpg,-2,1,pleasant3.jpg,-2,1,pleasant4.jpg,-2,1,unpleasant1.jpg,-2,1,unpleasant2.jpg,-2,1,unpleasant3.jpg,-2,1,unpleasant4.jpg,-2,1,Please use the mouse to click on the desired response option!,-2
23.06.22,21:36:07,273852442,663795436,1,06.06.00,4,scale,prefer,0,5672,1,pleasant1.jpg,-4,1,pleasant2.jpg,-4,1,pleasant3.jpg,-4,1,pleasant4.jpg,-4,1,unpleasant1.jpg,-4,1,unpleasant2.jpg,-4,1,unpleasant3.jpg,-4,1,unpleasant4.jpg,-4,1,Please use the mouse to click on the desired response option!,-4
23.06.22,13:06:44,613078451,464934738,1,06.06.00,1,scale,instructions,1,7988,1,"This is the second of the six tasks. You will be presented with a number of trials. On each trial, you will be asked to make a rating between two categories by clicking a number between 1 and 7.  1 indicates a strong preference for the category presented on the left, whereas 7 represents a strong preference for the category presented on the right. 4 indcates no preference.  When you are ready to begin, please press the spacebar.",3,0,0,0,0,0,0,0,0,0,0,0,0,0,0,0,0,0,0,0,0,0,0,0,0
23.06.22,13:06:44,613078451,464934738,1,06.06.00,2,scale,like,0,8953,1,pleasant1.jpg,1,1,pleasant2.jpg,1,1,pleasant3.jpg,1,1,pleasant4.jpg,1,1,unpleasant1.jpg,1,1,unpleasant2.jpg,1,1,unpleasant3.jpg,1,1,unpleasant4.jpg,1,1,Please use the mouse to click on the desired response option!,1
23.06.22,13:06:44,613078451,464934738,1,06.06.00,3,scale,positive,0,2737,1,pleasant1.jpg,2,1,pleasant2.jpg,2,1,pleasant3.jpg,2,1,pleasant4.jpg,2,1,unpleasant1.jpg,2,1,unpleasant2.jpg,2,1,unpleasant3.jpg,2,1,unpleasant4.jpg,2,1,Please use the mouse to click on the desired response option!,2
23.06.22,13:06:44,613078451,464934738,1,06.06.00,4,scale,prefer,0,3633,1,pleasant1.jpg,2,1,pleasant2.jpg,2,1,pleasant3.jpg,2,1,pleasant4.jpg,2,1,unpleasant1.jpg,2,1,unpleasant2.jpg,2,1,unpleasant3.jpg,2,1,unpleasant4.jpg,2,1,Please use the mouse to click on the desired response option!,2
23.06.22,13:06:38,510405090,530863876,1,06.06.00,1,scale,instructions,1,21708,1,"This is the second of the six tasks. You will be presented with a number of trials. On each trial, you will be asked to make a rating between two categories by clicking a number between 1 and 7.  1 indicates a strong preference for the category presented on the left, whereas 7 represents a strong preference for the category presented on the right. 4 indcates no preference.  When you are ready to begin, please press the spacebar.",-11,0,0,0,0,0,0,0,0,0,0,0,0,0,0,0,0,0,0,0,0,0,0,0,0
23.06.22,13:06:38,510405090,530863876,1,06.06.00,2,scale,like,0,15078,1,pleasant1.jpg,-16,1,pleasant2.jpg,-16,1,pleasant3.jpg,-16,1,pleasant4.jpg,-16,1,unpleasant1.jpg,-16,1,unpleasant2.jpg,-16,1,unpleasant3.jpg,-16,1,unpleasant4.jpg,-16,1,Please use the mouse to click on the desired response option!,-16
23.06.22,13:06:38,510405090,530863876,1,06.06.00,3,scale,positive,0,4347,1,pleasant1.jpg,-4,1,pleasant2.jpg,-4,1,pleasant3.jpg,-4,1,pleasant4.jpg,-4,1,unpleasant1.jpg,-4,1,unpleasant2.jpg,-4,1,unpleasant3.jpg,-4,1,unpleasant4.jpg,-4,1,Please use the mouse to click on the desired response option!,-4
23.06.22,13:06:38,510405090,530863876,1,06.06.00,4,scale,prefer,0,5181,1,pleasant1.jpg,-6,1,pleasant2.jpg,-6,1,pleasant3.jpg,-6,1,pleasant4.jpg,-6,1,unpleasant1.jpg,-6,1,unpleasant2.jpg,-6,1,unpleasant3.jpg,-6,1,unpleasant4.jpg,-6,1,Please use the mouse to click on the desired response option!,-6
23.06.22,13:06:53,96305940,727031797,1,06.06.00,1,scale,instructions,1,9446,1,"This is the second of the six tasks. You will be presented with a number of trials. On each trial, you will be asked to make a rating between two categories by clicking a number between 1 and 7.  1 indicates a strong preference for the category presented on the left, whereas 7 represents a strong preference for the category presented on the right. 4 indcates no preference.  When you are ready to begin, please press the spacebar.",-8,0,0,0,0,0,0,0,0,0,0,0,0,0,0,0,0,0,0,0,0,0,0,0,0
23.06.22,13:06:53,96305940,727031797,1,06.06.00,2,scale,like,0,6839,1,pleasant1.jpg,-8,1,pleasant2.jpg,-8,1,pleasant3.jpg,-8,1,pleasant4.jpg,-8,1,unpleasant1.jpg,-8,1,unpleasant2.jpg,-8,1,unpleasant3.jpg,-8,1,unpleasant4.jpg,-8,1,Please use the mouse to click on the desired response option!,-8
23.06.22,13:06:53,96305940,727031797,1,06.06.00,3,scale,positive,0,13772,1,pleasant1.jpg,6,1,pleasant2.jpg,6,1,pleasant3.jpg,6,1,pleasant4.jpg,6,1,unpleasant1.jpg,6,1,unpleasant2.jpg,6,1,unpleasant3.jpg,6,1,unpleasant4.jpg,6,1,Please use the mouse to click on the desired response option!,6
23.06.22,13:06:53,96305940,727031797,1,06.06.00,4,scale,prefer,0,1381,1,pleasant1.jpg,4,1,pleasant2.jpg,4,1,pleasant3.jpg,4,1,pleasant4.jpg,4,1,unpleasant1.jpg,4,1,unpleasant2.jpg,4,1,unpleasant3.jpg,4,1,unpleasant4.jpg,4,1,Please use the mouse to click on the desired response option!,4
23.06.22,13:06:48,521208572,920212493,1,06.06.00,1,scale,instructions,1,17456,1,"This is the second of the six tasks. You will be presented with a number of trials. On each trial, you will be asked to make a rating between two categories by clicking a number between 1 and 7.  1 indicates a strong preference for the category presented on the left, whereas 7 represents a strong preference for the category presented on the right. 4 indcates no preference.  When you are ready to begin, please press the spacebar.",-13,0,0,0,0,0,0,0,0,0,0,0,0,0,0,0,0,0,0,0,0,0,0,0,0
23.06.22,13:06:48,521208572,920212493,1,06.06.00,2,scale,like,0,25677,1,pleasant1.jpg,-16,1,pleasant2.jpg,-16,1,pleasant3.jpg,-16,1,pleasant4.jpg,-16,1,unpleasant1.jpg,-16,1,unpleasant2.jpg,-16,1,unpleasant3.jpg,-16,1,unpleasant4.jpg,-16,1,Please use the mouse to click on the desired response option!,-16
23.06.22,13:06:48,521208572,920212493,1,06.06.00,3,scale,positive,0,5612,1,pleasant1.jpg,-6,1,pleasant2.jpg,-6,1,pleasant3.jpg,-6,1,pleasant4.jpg,-6,1,unpleasant1.jpg,-6,1,unpleasant2.jpg,-6,1,unpleasant3.jpg,-6,1,unpleasant4.jpg,-6,1,Please use the mouse to click on the desired response option!,-6
23.06.22,13:06:48,521208572,920212493,1,06.06.00,4,scale,prefer,0,9943,1,pleasant1.jpg,-7,1,pleasant2.jpg,-7,1,pleasant3.jpg,-7,1,pleasant4.jpg,-7,1,unpleasant1.jpg,-7,1,unpleasant2.jpg,-7,1,unpleasant3.jpg,-7,1,unpleasant4.jpg,-7,1,Please use the mouse to click on the desired response option!,-7
23.06.22,13:07:20,815939012,904883244,1,06.06.00,1,scale,instructions,1,21891,1,"This is the second of the six tasks. You will be presented with a number of trials. On each trial, you will be asked to make a rating between two categories by clicking a number between 1 and 7.  1 indicates a strong preference for the category presented on the left, whereas 7 represents a strong preference for the category presented on the right. 4 indcates no preference.  When you are ready to begin, please press the spacebar.",-10,0,0,0,0,0,0,0,0,0,0,0,0,0,0,0,0,0,0,0,0,0,0,0,0
23.06.22,13:07:20,815939012,904883244,1,06.06.00,2,scale,like,0,5500,1,pleasant1.jpg,-16,1,pleasant2.jpg,-16,1,pleasant3.jpg,-16,1,pleasant4.jpg,-16,1,unpleasant1.jpg,-16,1,unpleasant2.jpg,-16,1,unpleasant3.jpg,-16,1,unpleasant4.jpg,-16,1,Please use the mouse to click on the desired response option!,-16
23.06.22,13:07:20,815939012,904883244,1,06.06.00,3,scale,positive,0,8219,1,pleasant1.jpg,-4,1,pleasant2.jpg,-4,1,pleasant3.jpg,-4,1,pleasant4.jpg,-4,1,unpleasant1.jpg,-4,1,unpleasant2.jpg,-4,1,unpleasant3.jpg,-4,1,unpleasant4.jpg,-4,1,Please use the mouse to click on the desired response option!,-4
23.06.22,13:07:20,815939012,904883244,1,06.06.00,4,scale,prefer,0,2177,1,pleasant1.jpg,-8,1,pleasant2.jpg,-8,1,pleasant3.jpg,-8,1,pleasant4.jpg,-8,1,unpleasant1.jpg,-8,1,unpleasant2.jpg,-8,1,unpleasant3.jpg,-8,1,unpleasant4.jpg,-8,1,Please use the mouse to click on the desired response option!,-8
23.06.22,13:07:32,122839292,753565148,1,06.06.00,1,scale,instructions,1,13488,1,"This is the second of the six tasks. You will be presented with a number of trials. On each trial, you will be asked to make a rating between two categories by clicking a number between 1 and 7.  1 indicates a strong preference for the category presented on the left, whereas 7 represents a strong preference for the category presented on the right. 4 indcates no preference.  When you are ready to begin, please press the spacebar.",-6,0,0,0,0,0,0,0,0,0,0,0,0,0,0,0,0,0,0,0,0,0,0,0,0
23.06.22,13:07:32,122839292,753565148,1,06.06.00,2,scale,like,0,10283,1,pleasant1.jpg,-14,1,pleasant2.jpg,-14,1,pleasant3.jpg,-14,1,pleasant4.jpg,-14,1,unpleasant1.jpg,-14,1,unpleasant2.jpg,-14,1,unpleasant3.jpg,-14,1,unpleasant4.jpg,-14,1,Please use the mouse to click on the desired response option!,-14
23.06.22,13:07:32,122839292,753565148,1,06.06.00,3,scale,positive,0,5831,1,pleasant1.jpg,5,1,pleasant2.jpg,5,1,pleasant3.jpg,5,1,pleasant4.jpg,5,1,unpleasant1.jpg,5,1,unpleasant2.jpg,5,1,unpleasant3.jpg,5,1,unpleasant4.jpg,5,1,Please use the mouse to click on the desired response option!,5
23.06.22,13:07:32,122839292,753565148,1,06.06.00,4,scale,prefer,0,5068,1,pleasant1.jpg,3,1,pleasant2.jpg,3,1,pleasant3.jpg,3,1,pleasant4.jpg,3,1,unpleasant1.jpg,3,1,unpleasant2.jpg,3,1,unpleasant3.jpg,3,1,unpleasant4.jpg,3,1,Please use the mouse to click on the desired response option!,3
23.06.22,13:07:18,556859531,881713870,1,06.06.00,1,scale,instructions,1,16260,1,"This is the second of the six tasks. You will be presented with a number of trials. On each trial, you will be asked to make a rating between two categories by clicking a number between 1 and 7.  1 indicates a strong preference for the category presented on the left, whereas 7 represents a strong preference for the category presented on the right. 4 indcates no preference.  When you are ready to begin, please press the spacebar.",-16,0,0,0,0,0,0,0,0,0,0,0,0,0,0,0,0,0,0,0,0,0,0,0,0
23.06.22,13:07:18,556859531,881713870,1,06.06.00,2,scale,like,0,23074,1,pleasant1.jpg,13,1,pleasant2.jpg,13,1,pleasant3.jpg,13,1,pleasant4.jpg,13,1,unpleasant1.jpg,13,1,unpleasant2.jpg,13,1,unpleasant3.jpg,13,1,unpleasant4.jpg,13,1,Please use the mouse to click on the desired response option!,13
23.06.22,13:07:18,556859531,881713870,1,06.06.00,3,scale,positive,0,11323,1,pleasant1.jpg,-6,1,pleasant2.jpg,-6,1,pleasant3.jpg,-6,1,pleasant4.jpg,-6,1,unpleasant1.jpg,-6,1,unpleasant2.jpg,-6,1,unpleasant3.jpg,-6,1,unpleasant4.jpg,-6,1,Please use the mouse to click on the desired response option!,-6
23.06.22,13:07:18,556859531,881713870,1,06.06.00,4,scale,prefer,0,3909,1,pleasant1.jpg,-7,1,pleasant2.jpg,-7,1,pleasant3.jpg,-7,1,pleasant4.jpg,-7,1,unpleasant1.jpg,-7,1,unpleasant2.jpg,-7,1,unpleasant3.jpg,-7,1,unpleasant4.jpg,-7,1,Please use the mouse to click on the desired response option!,-7
23.06.22,05:07:15,658756221,526570034,1,06.06.00,1,scale,instructions,1,32178,1,"This is the second of the six tasks. You will be presented with a number of trials. On each trial, you will be asked to make a rating between two categories by clicking a number between 1 and 7.  1 indicates a strong preference for the category presented on the left, whereas 7 represents a strong preference for the category presented on the right. 4 indcates no preference.  When you are ready to begin, please press the spacebar.",-16,0,0,0,0,0,0,0,0,0,0,0,0,0,0,0,0,0,0,0,0,0,0,0,0
23.06.22,05:07:15,658756221,526570034,1,06.06.00,2,scale,like,0,13747,1,pleasant1.jpg,13,1,pleasant2.jpg,13,1,pleasant3.jpg,13,1,pleasant4.jpg,13,1,unpleasant1.jpg,13,1,unpleasant2.jpg,13,1,unpleasant3.jpg,13,1,unpleasant4.jpg,13,1,Please use the mouse to click on the desired response option!,13
23.06.22,05:07:15,658756221,526570034,1,06.06.00,3,scale,positive,0,9964,1,pleasant1.jpg,8,1,pleasant2.jpg,8,1,pleasant3.jpg,8,1,pleasant4.jpg,8,1,unpleasant1.jpg,8,1,unpleasant2.jpg,8,1,unpleasant3.jpg,8,1,unpleasant4.jpg,8,1,Please use the mouse to click on the desired response option!,8
23.06.22,05:07:15,658756221,526570034,1,06.06.00,4,scale,prefer,0,4236,1,pleasant1.jpg,9,1,pleasant2.jpg,9,1,pleasant3.jpg,9,1,pleasant4.jpg,9,1,unpleasant1.jpg,9,1,unpleasant2.jpg,9,1,unpleasant3.jpg,9,1,unpleasant4.jpg,9,1,Please use the mouse to click on the desired response option!,9
23.06.22,13:08:03,199664786,589607780,1,06.06.00,1,scale,instructions,1,11814,1,"This is the second of the six tasks. You will be presented with a number of trials. On each trial, you will be asked to make a rating between two categories by clicking a number between 1 and 7.  1 indicates a strong preference for the category presented on the left, whereas 7 represents a strong preference for the category presented on the right. 4 indcates no preference.  When you are ready to begin, please press the spacebar.",-15,0,0,0,0,0,0,0,0,0,0,0,0,0,0,0,0,0,0,0,0,0,0,0,0
23.06.22,13:08:03,199664786,589607780,1,06.06.00,2,scale,like,0,7589,1,pleasant1.jpg,59,1,pleasant2.jpg,59,1,pleasant3.jpg,59,1,pleasant4.jpg,59,1,unpleasant1.jpg,59,1,unpleasant2.jpg,59,1,unpleasant3.jpg,59,1,unpleasant4.jpg,59,1,Please use the mouse to click on the desired response option!,59
23.06.22,13:08:03,199664786,589607780,1,06.06.00,3,scale,positive,0,6812,1,pleasant1.jpg,-1,1,pleasant2.jpg,-1,1,pleasant3.jpg,-1,1,pleasant4.jpg,-1,1,unpleasant1.jpg,-1,1,unpleasant2.jpg,-1,1,unpleasant3.jpg,-1,1,unpleasant4.jpg,-1,1,Please use the mouse to click on the desired response option!,-1
23.06.22,13:08:03,199664786,589607780,1,06.06.00,4,scale,prefer,0,3539,1,pleasant1.jpg,-4,1,pleasant2.jpg,-4,1,pleasant3.jpg,-4,1,pleasant4.jpg,-4,1,unpleasant1.jpg,-4,1,unpleasant2.jpg,-4,1,unpleasant3.jpg,-4,1,unpleasant4.jpg,-4,1,Please use the mouse to click on the desired response option!,-4
23.06.22,13:07:57,275011382,563522777,1,06.06.00,1,scale,instructions,1,26875,1,"This is the second of the six tasks. You will be presented with a number of trials. On each trial, you will be asked to make a rating between two categories by clicking a number between 1 and 7.  1 indicates a strong preference for the category presented on the left, whereas 7 represents a strong preference for the category presented on the right. 4 indcates no preference.  When you are ready to begin, please press the spacebar.",-13,0,0,0,0,0,0,0,0,0,0,0,0,0,0,0,0,0,0,0,0,0,0,0,0
23.06.22,13:07:57,275011382,563522777,1,06.06.00,2,scale,like,0,11573,1,pleasant1.jpg,-16,1,pleasant2.jpg,-16,1,pleasant3.jpg,-16,1,pleasant4.jpg,-16,1,unpleasant1.jpg,-16,1,unpleasant2.jpg,-16,1,unpleasant3.jpg,-16,1,unpleasant4.jpg,-16,1,Please use the mouse to click on the desired response option!,-16
23.06.22,13:07:57,275011382,563522777,1,06.06.00,3,scale,positive,0,5020,1,pleasant1.jpg,-4,1,pleasant2.jpg,-4,1,pleasant3.jpg,-4,1,pleasant4.jpg,-4,1,unpleasant1.jpg,-4,1,unpleasant2.jpg,-4,1,unpleasant3.jpg,-4,1,unpleasant4.jpg,-4,1,Please use the mouse to click on the desired response option!,-4
23.06.22,13:07:57,275011382,563522777,1,06.06.00,4,scale,prefer,0,9730,1,pleasant1.jpg,60,1,pleasant2.jpg,60,1,pleasant3.jpg,60,1,pleasant4.jpg,60,1,unpleasant1.jpg,60,1,unpleasant2.jpg,60,1,unpleasant3.jpg,60,1,unpleasant4.jpg,60,1,Please use the mouse to click on the desired response option!,60
23.06.22,05:09:16,273333206,751712225,1,06.06.00,1,scale,instructions,1,16482,1,"This is the second of the six tasks. You will be presented with a number of trials. On each trial, you will be asked to make a rating between two categories by clicking a number between 1 and 7.  1 indicates a strong preference for the category presented on the left, whereas 7 represents a strong preference for the category presented on the right. 4 indcates no preference.  When you are ready to begin, please press the spacebar.",-16,0,0,0,0,0,0,0,0,0,0,0,0,0,0,0,0,0,0,0,0,0,0,0,0
23.06.22,05:09:16,273333206,751712225,1,06.06.00,2,scale,like,0,18135,1,pleasant1.jpg,-14,1,pleasant2.jpg,-14,1,pleasant3.jpg,-14,1,pleasant4.jpg,-14,1,unpleasant1.jpg,-14,1,unpleasant2.jpg,-14,1,unpleasant3.jpg,-14,1,unpleasant4.jpg,-14,1,Please use the mouse to click on the desired response option!,-14
23.06.22,05:09:16,273333206,751712225,1,06.06.00,3,scale,positive,0,4162,1,pleasant1.jpg,0,1,pleasant2.jpg,0,1,pleasant3.jpg,0,1,pleasant4.jpg,0,1,unpleasant1.jpg,0,1,unpleasant2.jpg,0,1,unpleasant3.jpg,0,1,unpleasant4.jpg,0,1,Please use the mouse to click on the desired response option!,0
23.06.22,05:09:16,273333206,751712225,1,06.06.00,4,scale,prefer,0,3842,1,pleasant1.jpg,1,1,pleasant2.jpg,1,1,pleasant3.jpg,1,1,pleasant4.jpg,1,1,unpleasant1.jpg,1,1,unpleasant2.jpg,1,1,unpleasant3.jpg,1,1,unpleasant4.jpg,1,1,Please use the mouse to click on the desired response option!,1
23.06.22,13:08:26,694899706,373740279,1,06.06.00,1,scale,instructions,1,22105,1,"This is the second of the six tasks. You will be presented with a number of trials. On each trial, you will be asked to make a rating between two categories by clicking a number between 1 and 7.  1 indicates a strong preference for the category presented on the left, whereas 7 represents a strong preference for the category presented on the right. 4 indcates no preference.  When you are ready to begin, please press the spacebar.",-15,0,0,0,0,0,0,0,0,0,0,0,0,0,0,0,0,0,0,0,0,0,0,0,0
23.06.22,13:08:26,694899706,373740279,1,06.06.00,2,scale,like,0,16347,1,pleasant1.jpg,15,1,pleasant2.jpg,15,1,pleasant3.jpg,15,1,pleasant4.jpg,15,1,unpleasant1.jpg,15,1,unpleasant2.jpg,15,1,unpleasant3.jpg,15,1,unpleasant4.jpg,15,1,Please use the mouse to click on the desired response option!,15
23.06.22,13:08:26,694899706,373740279,1,06.06.00,3,scale,positive,0,2685,1,pleasant1.jpg,-6,1,pleasant2.jpg,-6,1,pleasant3.jpg,-6,1,pleasant4.jpg,-6,1,unpleasant1.jpg,-6,1,unpleasant2.jpg,-6,1,unpleasant3.jpg,-6,1,unpleasant4.jpg,-6,1,Please use the mouse to click on the desired response option!,-6
23.06.22,13:08:26,694899706,373740279,1,06.06.00,4,scale,prefer,0,10760,1,pleasant1.jpg,-7,1,pleasant2.jpg,-7,1,pleasant3.jpg,-7,1,pleasant4.jpg,-7,1,unpleasant1.jpg,-7,1,unpleasant2.jpg,-7,1,unpleasant3.jpg,-7,1,unpleasant4.jpg,-7,1,Please use the mouse to click on the desired response option!,-7
23.06.22,13:09:23,123114412,681045009,1,06.06.00,1,scale,instructions,1,15175,1,"This is the second of the six tasks. You will be presented with a number of trials. On each trial, you will be asked to make a rating between two categories by clicking a number between 1 and 7.  1 indicates a strong preference for the category presented on the left, whereas 7 represents a strong preference for the category presented on the right. 4 indcates no preference.  When you are ready to begin, please press the spacebar.",-6,0,0,0,0,0,0,0,0,0,0,0,0,0,0,0,0,0,0,0,0,0,0,0,0
23.06.22,13:09:23,123114412,681045009,1,06.06.00,2,scale,like,0,4436,1,pleasant1.jpg,6,1,pleasant2.jpg,6,1,pleasant3.jpg,6,1,pleasant4.jpg,6,1,unpleasant1.jpg,6,1,unpleasant2.jpg,6,1,unpleasant3.jpg,6,1,unpleasant4.jpg,6,1,Please use the mouse to click on the desired response option!,6
23.06.22,13:09:23,123114412,681045009,1,06.06.00,3,scale,positive,0,4636,1,pleasant1.jpg,6,1,pleasant2.jpg,6,1,pleasant3.jpg,6,1,pleasant4.jpg,6,1,unpleasant1.jpg,6,1,unpleasant2.jpg,6,1,unpleasant3.jpg,6,1,unpleasant4.jpg,6,1,Please use the mouse to click on the desired response option!,6
23.06.22,13:09:23,123114412,681045009,1,06.06.00,4,scale,prefer,0,5506,1,pleasant1.jpg,6,1,pleasant2.jpg,6,1,pleasant3.jpg,6,1,pleasant4.jpg,6,1,unpleasant1.jpg,6,1,unpleasant2.jpg,6,1,unpleasant3.jpg,6,1,unpleasant4.jpg,6,1,Please use the mouse to click on the desired response option!,6
23.06.22,13:09:21,28800984,855399085,1,06.06.00,1,scale,instructions,1,40152,1,"This is the second of the six tasks. You will be presented with a number of trials. On each trial, you will be asked to make a rating between two categories by clicking a number between 1 and 7.  1 indicates a strong preference for the category presented on the left, whereas 7 represents a strong preference for the category presented on the right. 4 indcates no preference.  When you are ready to begin, please press the spacebar.",8,0,0,0,0,0,0,0,0,0,0,0,0,0,0,0,0,0,0,0,0,0,0,0,0
23.06.22,13:09:21,28800984,855399085,1,06.06.00,2,scale,like,0,13192,1,pleasant1.jpg,10,1,pleasant2.jpg,10,1,pleasant3.jpg,10,1,pleasant4.jpg,10,1,unpleasant1.jpg,10,1,unpleasant2.jpg,10,1,unpleasant3.jpg,10,1,unpleasant4.jpg,10,1,Please use the mouse to click on the desired response option!,10
23.06.22,13:09:21,28800984,855399085,1,06.06.00,3,scale,positive,0,4752,1,pleasant1.jpg,5,1,pleasant2.jpg,5,1,pleasant3.jpg,5,1,pleasant4.jpg,5,1,unpleasant1.jpg,5,1,unpleasant2.jpg,5,1,unpleasant3.jpg,5,1,unpleasant4.jpg,5,1,Please use the mouse to click on the desired response option!,5
23.06.22,13:09:21,28800984,855399085,1,06.06.00,4,scale,prefer,0,6156,1,pleasant1.jpg,8,1,pleasant2.jpg,8,1,pleasant3.jpg,8,1,pleasant4.jpg,8,1,unpleasant1.jpg,8,1,unpleasant2.jpg,8,1,unpleasant3.jpg,8,1,unpleasant4.jpg,8,1,Please use the mouse to click on the desired response option!,8
23.06.22,13:11:45,609352115,236383059,1,06.06.00,1,scale,instructions,1,9047,1,"This is the second of the six tasks. You will be presented with a number of trials. On each trial, you will be asked to make a rating between two categories by clicking a number between 1 and 7.  1 indicates a strong preference for the category presented on the left, whereas 7 represents a strong preference for the category presented on the right. 4 indcates no preference.  When you are ready to begin, please press the spacebar.",-6,0,0,0,0,0,0,0,0,0,0,0,0,0,0,0,0,0,0,0,0,0,0,0,0
23.06.22,13:11:45,609352115,236383059,1,06.06.00,2,scale,like,0,4390,1,pleasant1.jpg,-6,1,pleasant2.jpg,-6,1,pleasant3.jpg,-6,1,pleasant4.jpg,-6,1,unpleasant1.jpg,-6,1,unpleasant2.jpg,-6,1,unpleasant3.jpg,-6,1,unpleasant4.jpg,-6,1,Please use the mouse to click on the desired response option!,-6
23.06.22,13:11:45,609352115,236383059,1,06.06.00,3,scale,positive,0,3226,1,pleasant1.jpg,-6,1,pleasant2.jpg,-6,1,pleasant3.jpg,-6,1,pleasant4.jpg,-6,1,unpleasant1.jpg,-6,1,unpleasant2.jpg,-6,1,unpleasant3.jpg,-6,1,unpleasant4.jpg,-6,1,Please use the mouse to click on the desired response option!,-6
23.06.22,13:11:45,609352115,236383059,1,06.06.00,4,scale,prefer,0,3560,1,pleasant1.jpg,-2,1,pleasant2.jpg,-2,1,pleasant3.jpg,-2,1,pleasant4.jpg,-2,1,unpleasant1.jpg,-2,1,unpleasant2.jpg,-2,1,unpleasant3.jpg,-2,1,unpleasant4.jpg,-2,1,Please use the mouse to click on the desired response option!,-2
23.06.22,13:11:19,652786627,821599197,1,06.06.00,1,scale,instructions,1,13081,1,"This is the second of the six tasks. You will be presented with a number of trials. On each trial, you will be asked to make a rating between two categories by clicking a number between 1 and 7.  1 indicates a strong preference for the category presented on the left, whereas 7 represents a strong preference for the category presented on the right. 4 indcates no preference.  When you are ready to begin, please press the spacebar.",-16,0,0,0,0,0,0,0,0,0,0,0,0,0,0,0,0,0,0,0,0,0,0,0,0
23.06.22,13:11:19,652786627,821599197,1,06.06.00,2,scale,like,0,9654,1,pleasant1.jpg,-14,1,pleasant2.jpg,-14,1,pleasant3.jpg,-14,1,pleasant4.jpg,-14,1,unpleasant1.jpg,-14,1,unpleasant2.jpg,-14,1,unpleasant3.jpg,-14,1,unpleasant4.jpg,-14,1,Please use the mouse to click on the desired response option!,-14
23.06.22,13:11:19,652786627,821599197,1,06.06.00,3,scale,positive,0,6729,1,pleasant1.jpg,0,1,pleasant2.jpg,0,1,pleasant3.jpg,0,1,pleasant4.jpg,0,1,unpleasant1.jpg,0,1,unpleasant2.jpg,0,1,unpleasant3.jpg,0,1,unpleasant4.jpg,0,1,Please use the mouse to click on the desired response option!,0
23.06.22,13:11:19,652786627,821599197,1,06.06.00,4,scale,prefer,0,3475,1,pleasant1.jpg,0,1,pleasant2.jpg,0,1,pleasant3.jpg,0,1,pleasant4.jpg,0,1,unpleasant1.jpg,0,1,unpleasant2.jpg,0,1,unpleasant3.jpg,0,1,unpleasant4.jpg,0,1,Please use the mouse to click on the desired response option!,0
23.06.22,13:11:59,621902441,254118946,1,06.06.00,1,scale,instructions,1,21627,1,"This is the second of the six tasks. You will be presented with a number of trials. On each trial, you will be asked to make a rating between two categories by clicking a number between 1 and 7.  1 indicates a strong preference for the category presented on the left, whereas 7 represents a strong preference for the category presented on the right. 4 indcates no preference.  When you are ready to begin, please press the spacebar.",-16,0,0,0,0,0,0,0,0,0,0,0,0,0,0,0,0,0,0,0,0,0,0,0,0
23.06.22,13:11:59,621902441,254118946,1,06.06.00,2,scale,like,0,11113,1,pleasant1.jpg,1,1,pleasant2.jpg,1,1,pleasant3.jpg,1,1,pleasant4.jpg,1,1,unpleasant1.jpg,1,1,unpleasant2.jpg,1,1,unpleasant3.jpg,1,1,unpleasant4.jpg,1,1,Please use the mouse to click on the desired response option!,1
23.06.22,13:11:59,621902441,254118946,1,06.06.00,3,scale,positive,0,1420,1,pleasant1.jpg,-2,1,pleasant2.jpg,-2,1,pleasant3.jpg,-2,1,pleasant4.jpg,-2,1,unpleasant1.jpg,-2,1,unpleasant2.jpg,-2,1,unpleasant3.jpg,-2,1,unpleasant4.jpg,-2,1,Please use the mouse to click on the desired response option!,-2
23.06.22,13:11:59,621902441,254118946,1,06.06.00,4,scale,prefer,0,4597,1,pleasant1.jpg,-8,1,pleasant2.jpg,-8,1,pleasant3.jpg,-8,1,pleasant4.jpg,-8,1,unpleasant1.jpg,-8,1,unpleasant2.jpg,-8,1,unpleasant3.jpg,-8,1,unpleasant4.jpg,-8,1,Please use the mouse to click on the desired response option!,-8
23.06.22,13:12:46,478880021,952386283,1,06.06.00,1,scale,instructions,1,8426,1,"This is the second of the six tasks. You will be presented with a number of trials. On each trial, you will be asked to make a rating between two categories by clicking a number between 1 and 7.  1 indicates a strong preference for the category presented on the left, whereas 7 represents a strong preference for the category presented on the right. 4 indcates no preference.  When you are ready to begin, please press the spacebar.",12,0,0,0,0,0,0,0,0,0,0,0,0,0,0,0,0,0,0,0,0,0,0,0,0
23.06.22,13:12:46,478880021,952386283,1,06.06.00,2,scale,like,0,7630,1,pleasant1.jpg,9,1,pleasant2.jpg,9,1,pleasant3.jpg,9,1,pleasant4.jpg,9,1,unpleasant1.jpg,9,1,unpleasant2.jpg,9,1,unpleasant3.jpg,9,1,unpleasant4.jpg,9,1,Please use the mouse to click on the desired response option!,9
23.06.22,13:12:46,478880021,952386283,1,06.06.00,3,scale,positive,0,5435,1,pleasant1.jpg,1,1,pleasant2.jpg,1,1,pleasant3.jpg,1,1,pleasant4.jpg,1,1,unpleasant1.jpg,1,1,unpleasant2.jpg,1,1,unpleasant3.jpg,1,1,unpleasant4.jpg,1,1,Please use the mouse to click on the desired response option!,1
23.06.22,13:12:46,478880021,952386283,1,06.06.00,4,scale,prefer,0,4156,1,pleasant1.jpg,2,1,pleasant2.jpg,2,1,pleasant3.jpg,2,1,pleasant4.jpg,2,1,unpleasant1.jpg,2,1,unpleasant2.jpg,2,1,unpleasant3.jpg,2,1,unpleasant4.jpg,2,1,Please use the mouse to click on the desired response option!,2
23.06.22,13:12:37,171820996,730068356,1,06.06.00,1,scale,instructions,1,11650,1,"This is the second of the six tasks. You will be presented with a number of trials. On each trial, you will be asked to make a rating between two categories by clicking a number between 1 and 7.  1 indicates a strong preference for the category presented on the left, whereas 7 represents a strong preference for the category presented on the right. 4 indcates no preference.  When you are ready to begin, please press the spacebar.",-16,0,0,0,0,0,0,0,0,0,0,0,0,0,0,0,0,0,0,0,0,0,0,0,0
23.06.22,13:12:37,171820996,730068356,1,06.06.00,2,scale,like,0,17580,1,pleasant1.jpg,9,1,pleasant2.jpg,9,1,pleasant3.jpg,9,1,pleasant4.jpg,9,1,unpleasant1.jpg,9,1,unpleasant2.jpg,9,1,unpleasant3.jpg,9,1,unpleasant4.jpg,9,1,Please use the mouse to click on the desired response option!,9
23.06.22,13:12:37,171820996,730068356,1,06.06.00,3,scale,positive,0,224,1,pleasant1.jpg,-3,1,pleasant2.jpg,-3,1,pleasant3.jpg,-3,1,pleasant4.jpg,-3,1,unpleasant1.jpg,-3,1,unpleasant2.jpg,-3,1,unpleasant3.jpg,-3,1,unpleasant4.jpg,-3,1,Please use the mouse to click on the desired response option!,-3
23.06.22,13:12:37,171820996,730068356,1,06.06.00,4,scale,prefer,0,5500,1,pleasant1.jpg,0,1,pleasant2.jpg,0,1,pleasant3.jpg,0,1,pleasant4.jpg,0,1,unpleasant1.jpg,0,1,unpleasant2.jpg,0,1,unpleasant3.jpg,0,1,unpleasant4.jpg,0,1,Please use the mouse to click on the desired response option!,0
23.06.22,13:11:33,316023044,246374429,1,06.06.00,1,scale,instructions,1,87659,1,"This is the second of the six tasks. You will be presented with a number of trials. On each trial, you will be asked to make a rating between two categories by clicking a number between 1 and 7.  1 indicates a strong preference for the category presented on the left, whereas 7 represents a strong preference for the category presented on the right. 4 indcates no preference.  When you are ready to begin, please press the spacebar.",14,0,0,0,0,0,0,0,0,0,0,0,0,0,0,0,0,0,0,0,0,0,0,0,0
23.06.22,13:11:33,316023044,246374429,1,06.06.00,2,scale,like,0,13566,1,pleasant1.jpg,15,1,pleasant2.jpg,15,1,pleasant3.jpg,15,1,pleasant4.jpg,15,1,unpleasant1.jpg,15,1,unpleasant2.jpg,15,1,unpleasant3.jpg,15,1,unpleasant4.jpg,15,1,Please use the mouse to click on the desired response option!,15
23.06.22,13:11:33,316023044,246374429,1,06.06.00,3,scale,positive,0,5410,1,pleasant1.jpg,3,1,pleasant2.jpg,3,1,pleasant3.jpg,3,1,pleasant4.jpg,3,1,unpleasant1.jpg,3,1,unpleasant2.jpg,3,1,unpleasant3.jpg,3,1,unpleasant4.jpg,3,1,Please use the mouse to click on the desired response option!,3
23.06.22,13:11:33,316023044,246374429,1,06.06.00,4,scale,prefer,0,4006,1,pleasant1.jpg,4,1,pleasant2.jpg,4,1,pleasant3.jpg,4,1,pleasant4.jpg,4,1,unpleasant1.jpg,4,1,unpleasant2.jpg,4,1,unpleasant3.jpg,4,1,unpleasant4.jpg,4,1,Please use the mouse to click on the desired response option!,4
23.06.22,13:13:14,537746658,317124448,1,06.06.00,1,scale,instructions,1,15897,1,"This is the second of the six tasks. You will be presented with a number of trials. On each trial, you will be asked to make a rating between two categories by clicking a number between 1 and 7.  1 indicates a strong preference for the category presented on the left, whereas 7 represents a strong preference for the category presented on the right. 4 indcates no preference.  When you are ready to begin, please press the spacebar.",-16,0,0,0,0,0,0,0,0,0,0,0,0,0,0,0,0,0,0,0,0,0,0,0,0
23.06.22,13:13:14,537746658,317124448,1,06.06.00,2,scale,like,0,15990,1,pleasant1.jpg,-16,1,pleasant2.jpg,-16,1,pleasant3.jpg,-16,1,pleasant4.jpg,-16,1,unpleasant1.jpg,-16,1,unpleasant2.jpg,-16,1,unpleasant3.jpg,-16,1,unpleasant4.jpg,-16,1,Please use the mouse to click on the desired response option!,-16
23.06.22,13:13:14,537746658,317124448,1,06.06.00,3,scale,positive,0,4009,1,pleasant1.jpg,-6,1,pleasant2.jpg,-6,1,pleasant3.jpg,-6,1,pleasant4.jpg,-6,1,unpleasant1.jpg,-6,1,unpleasant2.jpg,-6,1,unpleasant3.jpg,-6,1,unpleasant4.jpg,-6,1,Please use the mouse to click on the desired response option!,-6
23.06.22,13:13:14,537746658,317124448,1,06.06.00,4,scale,prefer,0,3432,1,pleasant1.jpg,-7,1,pleasant2.jpg,-7,1,pleasant3.jpg,-7,1,pleasant4.jpg,-7,1,unpleasant1.jpg,-7,1,unpleasant2.jpg,-7,1,unpleasant3.jpg,-7,1,unpleasant4.jpg,-7,1,Please use the mouse to click on the desired response option!,-7
23.06.22,13:14:13,164161878,637668138,1,06.06.00,1,scale,instructions,1,4688,1,"This is the second of the six tasks. You will be presented with a number of trials. On each trial, you will be asked to make a rating between two categories by clicking a number between 1 and 7.  1 indicates a strong preference for the category presented on the left, whereas 7 represents a strong preference for the category presented on the right. 4 indcates no preference.  When you are ready to begin, please press the spacebar.",4,0,0,0,0,0,0,0,0,0,0,0,0,0,0,0,0,0,0,0,0,0,0,0,0
23.06.22,13:14:13,164161878,637668138,1,06.06.00,2,scale,like,0,4889,1,pleasant1.jpg,13,1,pleasant2.jpg,13,1,pleasant3.jpg,13,1,pleasant4.jpg,13,1,unpleasant1.jpg,13,1,unpleasant2.jpg,13,1,unpleasant3.jpg,13,1,unpleasant4.jpg,13,1,Please use the mouse to click on the desired response option!,13
23.06.22,13:14:13,164161878,637668138,1,06.06.00,3,scale,positive,0,1898,1,pleasant1.jpg,0,1,pleasant2.jpg,0,1,pleasant3.jpg,0,1,pleasant4.jpg,0,1,unpleasant1.jpg,0,1,unpleasant2.jpg,0,1,unpleasant3.jpg,0,1,unpleasant4.jpg,0,1,Please use the mouse to click on the desired response option!,0
23.06.22,13:14:13,164161878,637668138,1,06.06.00,4,scale,prefer,0,1946,1,pleasant1.jpg,1,1,pleasant2.jpg,1,1,pleasant3.jpg,1,1,pleasant4.jpg,1,1,unpleasant1.jpg,1,1,unpleasant2.jpg,1,1,unpleasant3.jpg,1,1,unpleasant4.jpg,1,1,Please use the mouse to click on the desired response option!,1
23.06.22,13:14:09,914588354,694264273,1,06.06.00,1,scale,instructions,1,9621,1,"This is the second of the six tasks. You will be presented with a number of trials. On each trial, you will be asked to make a rating between two categories by clicking a number between 1 and 7.  1 indicates a strong preference for the category presented on the left, whereas 7 represents a strong preference for the category presented on the right. 4 indcates no preference.  When you are ready to begin, please press the spacebar.",-15,0,0,0,0,0,0,0,0,0,0,0,0,0,0,0,0,0,0,0,0,0,0,0,0
23.06.22,13:14:09,914588354,694264273,1,06.06.00,2,scale,like,0,15872,1,pleasant1.jpg,-15,1,pleasant2.jpg,-15,1,pleasant3.jpg,-15,1,pleasant4.jpg,-15,1,unpleasant1.jpg,-15,1,unpleasant2.jpg,-15,1,unpleasant3.jpg,-15,1,unpleasant4.jpg,-15,1,Please use the mouse to click on the desired response option!,-15
23.06.22,13:14:09,914588354,694264273,1,06.06.00,3,scale,positive,0,8158,1,pleasant1.jpg,-14,1,pleasant2.jpg,-14,1,pleasant3.jpg,-14,1,pleasant4.jpg,-14,1,unpleasant1.jpg,-14,1,unpleasant2.jpg,-14,1,unpleasant3.jpg,-14,1,unpleasant4.jpg,-14,1,Please use the mouse to click on the desired response option!,-14
23.06.22,13:14:09,914588354,694264273,1,06.06.00,4,scale,prefer,0,7842,1,pleasant1.jpg,8,1,pleasant2.jpg,8,1,pleasant3.jpg,8,1,pleasant4.jpg,8,1,unpleasant1.jpg,8,1,unpleasant2.jpg,8,1,unpleasant3.jpg,8,1,unpleasant4.jpg,8,1,Please use the mouse to click on the desired response option!,8
23.06.22,08:14:47,635953290,631750145,1,06.06.00,1,scale,instructions,1,15009,1,"This is the second of the six tasks. You will be presented with a number of trials. On each trial, you will be asked to make a rating between two categories by clicking a number between 1 and 7.  1 indicates a strong preference for the category presented on the left, whereas 7 represents a strong preference for the category presented on the right. 4 indcates no preference.  When you are ready to begin, please press the spacebar.",-15,0,0,0,0,0,0,0,0,0,0,0,0,0,0,0,0,0,0,0,0,0,0,0,0
23.06.22,08:14:47,635953290,631750145,1,06.06.00,2,scale,like,0,16201,1,pleasant1.jpg,-16,1,pleasant2.jpg,-16,1,pleasant3.jpg,-16,1,pleasant4.jpg,-16,1,unpleasant1.jpg,-16,1,unpleasant2.jpg,-16,1,unpleasant3.jpg,-16,1,unpleasant4.jpg,-16,1,Please use the mouse to click on the desired response option!,-16
23.06.22,08:14:47,635953290,631750145,1,06.06.00,3,scale,positive,0,3582,1,pleasant1.jpg,0,1,pleasant2.jpg,0,1,pleasant3.jpg,0,1,pleasant4.jpg,0,1,unpleasant1.jpg,0,1,unpleasant2.jpg,0,1,unpleasant3.jpg,0,1,unpleasant4.jpg,0,1,Please use the mouse to click on the desired response option!,0
23.06.22,08:14:47,635953290,631750145,1,06.06.00,4,scale,prefer,0,4036,1,pleasant1.jpg,-5,1,pleasant2.jpg,-5,1,pleasant3.jpg,-5,1,pleasant4.jpg,-5,1,unpleasant1.jpg,-5,1,unpleasant2.jpg,-5,1,unpleasant3.jpg,-5,1,unpleasant4.jpg,-5,1,Please use the mouse to click on the desired response option!,-5
23.06.22,13:15:45,606772466,237498336,1,06.06.00,1,scale,instructions,1,10696,1,"This is the second of the six tasks. You will be presented with a number of trials. On each trial, you will be asked to make a rating between two categories by clicking a number between 1 and 7.  1 indicates a strong preference for the category presented on the left, whereas 7 represents a strong preference for the category presented on the right. 4 indcates no preference.  When you are ready to begin, please press the spacebar.",1,0,0,0,0,0,0,0,0,0,0,0,0,0,0,0,0,0,0,0,0,0,0,0,0
23.06.22,13:15:45,606772466,237498336,1,06.06.00,2,scale,like,0,10832,1,pleasant1.jpg,20,1,pleasant2.jpg,20,1,pleasant3.jpg,20,1,pleasant4.jpg,20,1,unpleasant1.jpg,20,1,unpleasant2.jpg,20,1,unpleasant3.jpg,20,1,unpleasant4.jpg,20,1,Please use the mouse to click on the desired response option!,20
23.06.22,13:15:45,606772466,237498336,1,06.06.00,3,scale,positive,0,2923,1,pleasant1.jpg,0,1,pleasant2.jpg,0,1,pleasant3.jpg,0,1,pleasant4.jpg,0,1,unpleasant1.jpg,0,1,unpleasant2.jpg,0,1,unpleasant3.jpg,0,1,unpleasant4.jpg,0,1,Please use the mouse to click on the desired response option!,0
23.06.22,13:15:45,606772466,237498336,1,06.06.00,4,scale,prefer,0,3115,1,pleasant1.jpg,0,1,pleasant2.jpg,0,1,pleasant3.jpg,0,1,pleasant4.jpg,0,1,unpleasant1.jpg,0,1,unpleasant2.jpg,0,1,unpleasant3.jpg,0,1,unpleasant4.jpg,0,1,Please use the mouse to click on the desired response option!,0
23.06.22,13:16:27,461575816,867476338,1,06.06.00,1,scale,instructions,1,7036,1,"This is the second of the six tasks. You will be presented with a number of trials. On each trial, you will be asked to make a rating between two categories by clicking a number between 1 and 7.  1 indicates a strong preference for the category presented on the left, whereas 7 represents a strong preference for the category presented on the right. 4 indcates no preference.  When you are ready to begin, please press the spacebar.",-12,0,0,0,0,0,0,0,0,0,0,0,0,0,0,0,0,0,0,0,0,0,0,0,0
23.06.22,13:16:27,461575816,867476338,1,06.06.00,2,scale,like,0,5153,1,pleasant1.jpg,-13,1,pleasant2.jpg,-13,1,pleasant3.jpg,-13,1,pleasant4.jpg,-13,1,unpleasant1.jpg,-13,1,unpleasant2.jpg,-13,1,unpleasant3.jpg,-13,1,unpleasant4.jpg,-13,1,Please use the mouse to click on the desired response option!,-13
23.06.22,13:16:27,461575816,867476338,1,06.06.00,3,scale,positive,0,6593,1,pleasant1.jpg,2,1,pleasant2.jpg,2,1,pleasant3.jpg,2,1,pleasant4.jpg,2,1,unpleasant1.jpg,2,1,unpleasant2.jpg,2,1,unpleasant3.jpg,2,1,unpleasant4.jpg,2,1,Please use the mouse to click on the desired response option!,2
23.06.22,13:16:27,461575816,867476338,1,06.06.00,4,scale,prefer,0,1487,1,pleasant1.jpg,0,1,pleasant2.jpg,0,1,pleasant3.jpg,0,1,pleasant4.jpg,0,1,unpleasant1.jpg,0,1,unpleasant2.jpg,0,1,unpleasant3.jpg,0,1,unpleasant4.jpg,0,1,Please use the mouse to click on the desired response option!,0
23.06.22,13:15:46,343435840,339232704,1,06.06.00,1,scale,instructions,1,72873,1,"This is the second of the six tasks. You will be presented with a number of trials. On each trial, you will be asked to make a rating between two categories by clicking a number between 1 and 7.  1 indicates a strong preference for the category presented on the left, whereas 7 represents a strong preference for the category presented on the right. 4 indcates no preference.  When you are ready to begin, please press the spacebar.",-16,0,0,0,0,0,0,0,0,0,0,0,0,0,0,0,0,0,0,0,0,0,0,0,0
23.06.22,13:15:46,343435840,339232704,1,06.06.00,2,scale,like,0,12184,1,pleasant1.jpg,-15,1,pleasant2.jpg,-15,1,pleasant3.jpg,-15,1,pleasant4.jpg,-15,1,unpleasant1.jpg,-15,1,unpleasant2.jpg,-15,1,unpleasant3.jpg,-15,1,unpleasant4.jpg,-15,1,Please use the mouse to click on the desired response option!,-15
23.06.22,13:15:46,343435840,339232704,1,06.06.00,3,scale,positive,0,10108,1,pleasant1.jpg,1,1,pleasant2.jpg,1,1,pleasant3.jpg,1,1,pleasant4.jpg,1,1,unpleasant1.jpg,1,1,unpleasant2.jpg,1,1,unpleasant3.jpg,1,1,unpleasant4.jpg,1,1,Please use the mouse to click on the desired response option!,1
23.06.22,13:15:46,343435840,339232704,1,06.06.00,4,scale,prefer,0,9744,1,pleasant1.jpg,-2,1,pleasant2.jpg,-2,1,pleasant3.jpg,-2,1,pleasant4.jpg,-2,1,unpleasant1.jpg,-2,1,unpleasant2.jpg,-2,1,unpleasant3.jpg,-2,1,unpleasant4.jpg,-2,1,Please use the mouse to click on the desired response option!,-2
23.06.22,13:16:29,179391162,175188025,1,06.06.00,1,scale,instructions,1,22298,1,"This is the second of the six tasks. You will be presented with a number of trials. On each trial, you will be asked to make a rating between two categories by clicking a number between 1 and 7.  1 indicates a strong preference for the category presented on the left, whereas 7 represents a strong preference for the category presented on the right. 4 indcates no preference.  When you are ready to begin, please press the spacebar.",-16,0,0,0,0,0,0,0,0,0,0,0,0,0,0,0,0,0,0,0,0,0,0,0,0
23.06.22,13:16:29,179391162,175188025,1,06.06.00,2,scale,like,0,20497,1,pleasant1.jpg,-16,1,pleasant2.jpg,-16,1,pleasant3.jpg,-16,1,pleasant4.jpg,-16,1,unpleasant1.jpg,-16,1,unpleasant2.jpg,-16,1,unpleasant3.jpg,-16,1,unpleasant4.jpg,-16,1,Please use the mouse to click on the desired response option!,-16
23.06.22,13:16:29,179391162,175188025,1,06.06.00,3,scale,positive,0,18253,1,pleasant1.jpg,-9,1,pleasant2.jpg,-9,1,pleasant3.jpg,-9,1,pleasant4.jpg,-9,1,unpleasant1.jpg,-9,1,unpleasant2.jpg,-9,1,unpleasant3.jpg,-9,1,unpleasant4.jpg,-9,1,Please use the mouse to click on the desired response option!,-9
23.06.22,13:16:29,179391162,175188025,1,06.06.00,4,scale,prefer,0,6337,1,pleasant1.jpg,-2,1,pleasant2.jpg,-2,1,pleasant3.jpg,-2,1,pleasant4.jpg,-2,1,unpleasant1.jpg,-2,1,unpleasant2.jpg,-2,1,unpleasant3.jpg,-2,1,unpleasant4.jpg,-2,1,Please use the mouse to click on the desired response option!,-2
23.06.22,13:17:16,165515544,692009266,1,06.06.00,1,scale,instructions,1,19445,1,"This is the second of the six tasks. You will be presented with a number of trials. On each trial, you will be asked to make a rating between two categories by clicking a number between 1 and 7.  1 indicates a strong preference for the category presented on the left, whereas 7 represents a strong preference for the category presented on the right. 4 indcates no preference.  When you are ready to begin, please press the spacebar.",-16,0,0,0,0,0,0,0,0,0,0,0,0,0,0,0,0,0,0,0,0,0,0,0,0
23.06.22,13:17:16,165515544,692009266,1,06.06.00,2,scale,like,0,9105,1,pleasant1.jpg,-1,1,pleasant2.jpg,-1,1,pleasant3.jpg,-1,1,pleasant4.jpg,-1,1,unpleasant1.jpg,-1,1,unpleasant2.jpg,-1,1,unpleasant3.jpg,-1,1,unpleasant4.jpg,-1,1,Please use the mouse to click on the desired response option!,-1
23.06.22,13:17:16,165515544,692009266,1,06.06.00,3,scale,positive,0,3979,1,pleasant1.jpg,-9,1,pleasant2.jpg,-9,1,pleasant3.jpg,-9,1,pleasant4.jpg,-9,1,unpleasant1.jpg,-9,1,unpleasant2.jpg,-9,1,unpleasant3.jpg,-9,1,unpleasant4.jpg,-9,1,Please use the mouse to click on the desired response option!,-9
23.06.22,13:17:16,165515544,692009266,1,06.06.00,4,scale,prefer,0,3186,1,pleasant1.jpg,-12,1,pleasant2.jpg,-12,1,pleasant3.jpg,-12,1,pleasant4.jpg,-12,1,unpleasant1.jpg,-12,1,unpleasant2.jpg,-12,1,unpleasant3.jpg,-12,1,unpleasant4.jpg,-12,1,Please use the mouse to click on the desired response option!,-12
